File: 1_FTIR_raw/corrected_spectra_r.txt
.wavelength	spc
650	1.56795
691	2.43976
732	2.36569
773	0.725308
814	1.20447
855	1.73753
896	1.29185
937	1.4541
978	1.958
1019	3.26043
1060	2.70841
1101	3.75967
1142	1.1722
1183	1.29506
1224	3.73296
1265	3.18777
1306	0.556779
1347	0.779087
1388	0.433363
1429	0.125441
1470	0.475272
1511	0.311868
1552	0.210556
1593	0.387939
1634	0.76972
1675	1.85743
1716	4.09915
1757	0.0148088
1798	0.0173945
1839	0.000740276
1880	-0.0122229
1921	0.0526319
1962	0.0519747
2003	-0.0340935
2044	0.0165622
2085	0.192723
2126	0.18366
2167	0.112785
2208	0.198074
2249	0.303407
2290	0.403326
2331	0.39252
2372	0.422888
2413	0.464626
2454	0.478433
2495	0.504218
2536	0.539438
2577	0.568027
2618	0.60706
2659	0.640491
2700	0.6559
2741	0.692617
2782	0.719031
2823	0.748765
2864	0.827561
2905	0.914587
2946	0.962523
2987	0.941293
3028	0.825399
3069	0.885377
3110	0.872007
3151	0.855198
3192	0.873928
3233	0.901847
3274	0.920762
3315	0.94449
3356	0.951221
3397	0.978192
3438	1.05636
3479	1.00833
3520	1.05735
3561	1.07775
3602	1.11766
3643	1.11346
3684	1.14954
3725	1.1787
3766	1.19458
3807	1.24907
3848	1.21424
3889	1.271
3930	1.27396
3971	1.2903
661	1.35116
702	2.68883
743	0.00395433
784	0.825539
825	1.10501
866	1.85366
907	0.985676
948	1.37546
989	1.68902
1030	1.73861
1071	2.99876
1112	2.96074
1153	0.601081
1194	1.55391
1235	3.8316
1276	2.21943
1317	0.242705
1358	0.114584
1399	0.73844
1440	0.330233
1481	0.147283
1522	0.138117
1563	0.294319
1604	0.430461
1645	0.775311
1686	2.22849
1727	2.73854
1768	-0.00219521
1809	0.0107744
1850	-0.0118953
1891	-0.00252065
1932	0.0374349
1973	-0.0499514
2014	-0.00124551
2055	0.0835208
2096	0.191197
2137	0.156122
2178	0.15136
2219	0.241258
2260	0.33415
2301	0.4152
2342	0.450274
2383	0.500998
2424	0.493039
2465	0.529468
2506	0.561953
2547	0.596784
2588	0.628812
2629	0.680897
2670	0.701478
2711	0.729937
2752	0.773785
2793	0.812552
2834	0.847868
2875	0.934119
2916	0.972833
2957	1.17103
2998	1.02769
3039	0.945251
3080	1.00736
3121	1.00232
3162	0.990213
3203	1.01456
3244	1.03799
3285	1.05975
3326	1.09621
3367	1.1076
3408	1.17067
3449	1.19384
3490	1.18174
3531	1.25027
3572	1.28422
3613	1.32403
3654	1.391
3695	1.35994
3736	1.40518
3777	1.3836
3818	1.42156
3859	1.48793
3900	1.47148
3941	1.49228
3982	1.51568
672	1.73432
713	3.65172
754	0.0649665
795	1.10499
836	1.55725
877	1.83777
918	1.05507
959	1.78076
1000	2.09081
1041	2.28943
1082	3.72587
1123	3.07649
1164	0.72969
1205	2.33415
1246	3.87705
1287	1.81613
1328	0.377728
1369	0.473878
1410	1.53222
1451	0.491072
1492	0.0107579
1533	0.0539546
1574	0.472606
1615	0.577531
1656	1.14492
1697	3.04583
1738	1.56001
1779	0.0222023
1820	0.0259466
1861	-0.039728
1902	-0.0168887
1943	0.0826838
1984	-0.0116746
2025	0.00496682
2066	0.129346
2107	0.194269
2148	0.10703
2189	0.143383
2230	0.250085
2271	0.318267
2312	0.3619
2353	0.388887
2394	0.441218
2435	0.455801
2476	0.487534
2517	0.519257
2558	0.549952
2599	0.576847
2640	0.624915
2681	0.640969
2722	0.673129
2763	0.711515
2804	0.759386
2845	0.801368
2886	0.897434
2927	0.902321
2968	1.16143
3009	0.952607
3050	0.925297
3091	0.92298
3132	0.921772
3173	0.930932
3214	0.959445
3255	0.976956
3296	1.01534
3337	1.02919
3378	1.05942
3419	1.13123
3460	1.08951
3501	1.11444
3542	1.12677
3583	1.18366
3624	1.20766
3665	1.20726
3706	1.21069
3747	1.22599
3788	1.29248
3829	1.31025
3870	1.35311
3911	1.36869
3952	1.38771
3993	1.41818
683	2.3927
724	4.50262
765	0.629192
806	1.29717
847	2.0946
888	1.38345
929	1.51626
970	2.40783
1011	3.28669
1052	2.65571
1093	4.27415
1134	2.25355
1175	1.36593
1216	3.42983
1257	3.83657
1298	1.07553
1339	1.82001
1380	0.493389
1421	0.159996
1462	0.495887
1503	0.629217
1544	0.24897
1585	0.492876
1626	0.737453
1667	1.58685
1708	4.3991
1749	0.262375
1790	-0.0163575
1831	0.0159487
1872	-0.0242335
1913	0.030143
1954	0.0707065
1995	0.0282847
2036	-0.00517663
2077	0.165006
2118	0.221532
2159	0.0731127
2200	0.158855
2241	0.267063
2282	0.354984
2323	0.410323
2364	0.392405
2405	0.424753
2446	0.431528
2487	0.453322
2528	0.48817
2569	0.518832
2610	0.553117
2651	0.586559
2692	0.588703
2733	0.623597
2774	0.649107
2815	0.684276
2856	0.75967
2897	0.829189
2938	0.842157
2979	0.957835
3020	0.790632
3061	0.821952
3102	0.807842
3143	0.778462
3184	0.792686
3225	0.811133
3266	0.834139
3307	0.853577
3348	0.867075
3389	0.873544
3430	0.956498
3471	0.915761
3512	0.946621
3553	0.964331
3594	0.964912
3635	1.02645
3676	1.02328
3717	1.00969
3758	1.03303
3799	1.02852
3840	1.07844
3881	1.07515
3922	1.09862
3963	1.11495
653	1.69674
694	2.78058
735	1.79316
776	0.885827
817	1.33359
858	1.89166
899	1.4143
940	1.59088
981	2.01913
1022	2.98855
1063	2.97622
1104	3.6849
1145	1.14278
1186	1.46819
1227	3.93399
1268	3.10792
1309	0.62865
1350	0.531116
1391	0.551686
1432	0.265188
1473	0.523125
1514	0.143089
1555	0.242539
1596	0.415245
1637	0.85638
1678	2.08406
1719	3.85904
1760	0.0437095
1801	0.0140082
1842	-0.00788603
1883	-0.0293032
1924	0.0275615
1965	-0.008858
2006	-0.0448911
2047	0.0385469
2088	0.192782
2129	0.10331
2170	0.131042
2211	0.200086
2252	0.27534
2293	0.371181
2334	0.378955
2375	0.389675
2416	0.41107
2457	0.449851
2498	0.462142
2539	0.501866
2580	0.540886
2621	0.577328
2662	0.597634
2703	0.60153
2744	0.642475
2785	0.672544
2826	0.705936
2867	0.785237
2908	0.895702
2949	0.973825
2990	0.911872
3031	0.784744
3072	0.845635
3113	0.82614
3154	0.801796
3195	0.840881
3236	0.847415
3277	0.869635
3318	0.906607
3359	0.90836
3400	0.948576
3441	1.01138
3482	0.925583
3523	0.985139
3564	1.00272
3605	1.0341
3646	1.05244
3687	1.05644
3728	1.04829
3769	1.11424
3810	1.09586
3851	1.11742
3892	1.13852
3933	1.16848
3974	1.17552
664	1.80268
705	3.57055
746	0.103146
787	1.29074
828	1.54595
869	2.67694
910	1.30268
951	1.82113
992	2.19135
1033	2.30613
1074	3.89225
1115	3.81649
1156	0.858451
1197	2.10449
1238	4.71016
1279	2.75332
1320	0.420433
1361	0.328536
1402	1.22104
1443	0.497626
1484	0.192383
1525	0.190429
1566	0.354332
1607	0.568757
1648	0.963065
1689	2.7027
1730	2.94061
1771	0.0186539
1812	0.00993144
1853	-0.0202849
1894	-0.0458308
1935	0.0239976
1976	-0.0325136
2017	-0.0135948
2058	0.101515
2099	0.168436
2140	0.102864
2181	0.132581
2222	0.209834
2263	0.289803
2304	0.349898
2345	0.37578
2386	0.38677
2427	0.391747
2468	0.420277
2509	0.443701
2550	0.467793
2591	0.514822
2632	0.553663
2673	0.543563
2714	0.567705
2755	0.594434
2796	0.623488
2837	0.65539
2878	0.738575
2919	0.761119
2960	0.924474
3001	0.795955
3042	0.727154
3083	0.773943
3124	0.752587
3165	0.744118
3206	0.771212
3247	0.781546
3288	0.792157
3329	0.817746
3370	0.833084
3411	0.873032
3452	0.877144
3493	0.87236
3534	0.933436
3575	0.956313
3616	0.978834
3657	0.998812
3698	0.977779
3739	0.983111
3780	0.994553
3821	1.04077
3862	1.0442
3903	1.05894
3944	1.06389
3985	1.08468
675	2.5113
716	4.69149
757	0.503948
798	1.51761
839	2.20998
880	1.95017
921	1.63779
962	2.49786
1003	2.81983
1044	2.88049
1085	4.52282
1126	3.49367
1167	1.18816
1208	3.08318
1249	4.49173
1290	1.90724
1331	0.825747
1372	0.669846
1413	1.4218
1454	0.676823
1495	0.25052
1536	0.231605
1577	0.762296
1618	0.816606
1659	1.55249
1700	3.73506
1741	1.27261
1782	-0.0106065
1823	0.0210784
1864	-0.0349257
1905	0.00412938
1946	0.0883269
1987	0.0350016
2028	0.0495481
2069	0.149987
2110	0.179474
2151	0.0529724
2192	0.119234
2233	0.245233
2274	0.319181
2315	0.356133
2356	0.326754
2397	0.370859
2438	0.375649
2479	0.403008
2520	0.433096
2561	0.45682
2602	0.4878
2643	0.517821
2684	0.514698
2725	0.536717
2766	0.562535
2807	0.598013
2848	0.630441
2889	0.700872
2930	0.687489
2971	0.908227
3012	0.710211
3053	0.680203
3094	0.666335
3135	0.659147
3176	0.648969
3217	0.668858
3258	0.671649
3299	0.686042
3340	0.689406
3381	0.717753
3422	0.769506
3463	0.724596
3504	0.730261
3545	0.762611
3586	0.797489
3627	0.806428
3668	0.77759
3709	0.811641
3750	0.869744
3791	0.843049
3832	0.839137
3873	0.895615
3914	0.872528
3955	0.910124
3996	0.906194
686	2.18453
727	3.95926
768	0.466529
809	1.09258
850	1.91764
891	1.24786
932	1.34848
973	2.25808
1014	3.35698
1055	2.58354
1096	4.12518
1137	2.04368
1178	1.28908
1219	3.39845
1260	3.73172
1301	1.05722
1342	1.82147
1383	0.486446
1424	0.126837
1465	0.447249
1506	0.60926
1547	0.1394
1588	0.334045
1629	0.611386
1670	1.58431
1711	4.25624
1752	0.326082
1793	0.0163744
1834	0.0053739
1875	-0.0438395
1916	0.00982549
1957	0.0486575
1998	2.93158e-05
2039	-0.00200942
2080	0.140764
2121	0.186845
2162	0.126895
2203	0.174642
2244	0.26311
2285	0.353256
2326	0.392406
2367	0.394201
2408	0.428491
2449	0.449907
2490	0.476028
2531	0.50785
2572	0.541252
2613	0.57182
2654	0.607291
2695	0.61994
2736	0.654345
2777	0.6789
2818	0.719925
2859	0.7881
2900	0.860182
2941	0.862194
2982	0.978507
3023	0.843207
3064	0.871423
3105	0.878187
3146	0.851455
3187	0.879438
3228	0.885527
3269	0.928375
3310	0.944887
3351	0.95871
3392	0.979455
3433	1.04722
3474	1.00936
3515	1.03775
3556	1.05087
3597	1.07852
3638	1.12178
3679	1.1287
3720	1.13828
3761	1.1528
3802	1.16605
3843	1.20892
3884	1.20711
3925	1.22757
3966	1.24274
656	1.23009
697	2.44817
738	0.843881
779	0.700299
820	1.06845
861	1.66121
902	1.13452
943	1.36676
984	1.75606
1025	2.20755
1066	2.89634
1107	3.28935
1148	0.873619
1189	1.41601
1230	3.85807
1271	2.74062
1312	0.521337
1353	0.25822
1394	0.599623
1435	0.337119
1476	0.387363
1517	0.0663277
1558	0.246775
1599	0.406684
1640	0.870559
1681	2.18985
1722	3.49809
1763	0.0693208
1804	0.035698
1845	-0.00914978
1886	-0.0217997
1927	0.025854
1968	-0.0422715
2009	-0.0253762
2050	0.0318547
2091	0.173347
2132	0.149317
2173	0.0981505
2214	0.212897
2255	0.289638
2296	0.386179
2337	0.415473
2378	0.457763
2419	0.448535
2460	0.474772
2501	0.5047
2542	0.5457
2583	0.586741
2624	0.625723
2665	0.645708
2706	0.670057
2747	0.710459
2788	0.748674
2829	0.782304
2870	0.886562
2911	0.974813
2952	1.12582
2993	1.00429
3034	0.887315
3075	0.95528
3116	0.932215
3157	0.91781
3198	0.943665
3239	0.969641
3280	0.989043
3321	1.02045
3362	1.02516
3403	1.08199
3444	1.11356
3485	1.08354
3526	1.12873
3567	1.17266
3608	1.18495
3649	1.22378
3690	1.23858
3731	1.22491
3772	1.27604
3813	1.25601
3854	1.32844
3895	1.31376
3936	1.36076
3977	1.38521
667	1.58861
708	3.01543
749	-0.0798982
790	1.02134
831	1.2179
872	1.88267
913	0.8951
954	1.41037
995	1.6894
1036	1.84298
1077	3.15491
1118	2.7215
1159	0.44916
1200	1.83713
1241	3.58058
1282	1.65989
1323	0.215336
1364	0.357909
1405	1.291
1446	0.427008
1487	0.227862
1528	0.525065
1569	0.641335
1610	0.848329
1651	1.32256
1692	2.34212
1733	1.5472
1774	0.00194103
1815	0.0178877
1856	-0.0163674
1897	0.00853512
1938	0.0273909
1979	-0.0213518
2020	-0.0420267
2061	0.0716569
2102	0.193839
2143	0.0967367
2184	0.11728
2225	0.258668
2266	0.342056
2307	0.432723
2348	0.464636
2389	0.481401
2430	0.487031
2471	0.521239
2512	0.563357
2553	0.593471
2594	0.646934
2635	0.704343
2676	0.720901
2717	0.757759
2758	0.792395
2799	0.848512
2840	0.868281
2881	0.946979
2922	0.760135
2963	1.1345
3004	1.04167
3045	1.05494
3086	1.09962
3127	1.10286
3168	1.14083
3209	1.19244
3250	1.25104
3291	1.28296
3332	1.27027
3373	1.24522
3414	1.27088
3455	1.22568
3496	1.19503
3537	1.19092
3578	1.21885
3619	1.29456
3660	1.25985
3701	1.25875
3742	1.33041
3783	1.31814
3824	1.40809
3865	1.37001
3906	1.45282
3947	1.4212
3988	1.41639
678	2.11123
719	4.41817
760	0.308403
801	0.994803
842	1.78522
883	1.24142
924	1.24308
965	2.08436
1006	2.50843
1047	2.36354
1088	3.92104
1129	2.50732
1170	0.948573
1211	2.77173
1252	3.62076
1293	1.18734
1334	1.01582
1375	0.434947
1416	0.574217
1457	0.488633
1498	0.368529
1539	0.368116
1580	0.679067
1621	0.762928
1662	1.34041
1703	3.62634
1744	0.493847
1785	-0.00717092
1826	0.0466088
1867	0.0275938
1908	0.0351349
1949	0.106667
1990	0.00308877
2031	-0.0564346
2072	0.140272
2113	0.20866
2154	0.0490726
2195	0.130339
2236	0.259668
2277	0.370696
2318	0.468158
2359	0.47224
2400	0.476243
2441	0.484619
2482	0.506514
2523	0.540905
2564	0.574486
2605	0.614846
2646	0.665818
2687	0.679769
2728	0.714585
2769	0.740956
2810	0.780179
2851	0.586571
2892	0.77435
2933	0.52337
2974	0.986966
3015	0.895586
3056	0.926277
3097	0.918423
3138	0.92375
3179	0.932414
3220	0.957757
3261	0.9727
3302	0.975114
3343	1.00169
3384	1.0004
3425	1.05837
3466	1.03928
3507	1.06904
3548	1.1427
3589	1.16157
3630	1.23574
3671	1.21819
3712	1.27069
3753	1.35755
3794	1.25612
3835	1.31991
3876	1.35634
3917	1.33258
3958	1.36185
3999	1.37815
689	2.32742
730	2.84459
771	0.619974
812	1.09378
853	1.70912
894	1.22984
935	1.38433
976	1.99777
1017	3.30556
1058	2.54307
1099	3.70922
1140	1.22612
1181	1.17824
1222	3.50306
1263	3.11703
1304	0.572758
1345	1.04593
1386	0.418665
1427	0.110233
1468	0.403615
1509	0.550294
1550	0.316312
1591	0.490242
1632	0.818954
1673	1.79115
1714	3.95119
1755	0.00851612
1796	0.0333792
1837	0.0191914
1878	-0.0083401
1919	0.0653888
1960	0.038239
2001	-0.0276821
2042	0.00248945
2083	0.181474
2124	0.188484
2165	0.00898614
2206	0.162418
2247	0.288868
2288	0.406677
2329	0.470729
2370	0.496922
2411	0.479847
2452	0.504557
2493	0.532827
2534	0.54409
2575	0.593905
2616	0.632755
2657	0.682308
2698	0.689008
2739	0.735159
2780	0.756663
2821	0.773763
2862	0.684286
2903	0.73947
2944	0.76737
2985	0.93204
3026	0.87099
3067	0.933397
3108	0.92879
3149	0.918974
3190	0.942589
3231	0.947721
3272	0.978725
3313	1.00747
3354	1.00117
3395	1.01606
3436	1.09695
3477	1.02837
3518	1.05931
3559	1.10216
3600	1.17426
3641	1.18922
3682	1.23526
3723	1.24043
3764	1.25283
3805	1.33691
3846	1.33709
3887	1.383
3928	1.36277
3969	1.35725
659	1.56507
700	2.9082
741	0.25732
782	0.923039
823	1.26409
864	1.92878
905	1.17362
946	1.52472
987	1.85958
1028	1.93644
1069	3.2279
1110	3.30387
1151	0.71719
1192	1.62748
1233	4.2025
1274	2.54028
1315	0.309072
1356	0.136821
1397	0.669927
1438	0.337653
1479	0.229202
1520	0.124329
1561	0.30282
1602	0.475756
1643	0.841929
1684	2.25759
1725	3.08901
1766	-0.0122598
1807	0.0162771
1848	-0.0101036
1889	-0.0113496
1930	0.0416602
1971	-0.0214412
2012	0.0112588
2053	0.0574719
2094	0.193471
2135	0.131026
2176	0.0675405
2217	0.208384
2258	0.308342
2299	0.377845
2340	0.422318
2381	0.460683
2422	0.461241
2463	0.468819
2504	0.503175
2545	0.548275
2586	0.581139
2627	0.622764
2668	0.643299
2709	0.671132
2750	0.701732
2791	0.742584
2832	0.773558
2873	0.86423
2914	0.903416
2955	1.09574
2996	0.954965
3037	0.869319
3078	0.926665
3119	0.906146
3160	0.896723
3201	0.923637
3242	0.961216
3283	0.96502
3324	0.980534
3365	0.998727
3406	1.0517
3447	1.07069
3488	1.05517
3529	1.09745
3570	1.12288
3611	1.15392
3652	1.18452
3693	1.18642
3734	1.19146
3775	1.21814
3816	1.23426
3857	1.29472
3898	1.27454
3939	1.30846
3980	1.34321
670	2.20374
711	4.07916
752	0.26376
793	1.49288
834	1.82623
875	2.29508
916	1.4031
957	2.10602
998	2.40439
1039	2.54675
1080	4.19916
1121	3.50016
1162	0.880758
1203	2.56335
1244	4.47621
1285	1.98052
1326	0.328785
1367	0.489956
1408	1.68932
1449	0.548338
1490	0.145221
1531	0.225876
1572	0.588692
1613	0.756755
1654	1.2875
1695	3.05619
1736	1.69708
1777	-0.0531765
1818	0.00477412
1859	-0.0226263
1900	0.0102749
1941	0.0917928
1982	0.0277859
2023	0.0308225
2064	0.134609
2105	0.200445
2146	0.131501
2187	0.197649
2228	0.239489
2269	0.320256
2310	0.369702
2351	0.374368
2392	0.421216
2433	0.418668
2474	0.454083
2515	0.476238
2556	0.492905
2597	0.53534
2638	0.567272
2679	0.569463
2720	0.596797
2761	0.629862
2802	0.661916
2843	0.706232
2884	0.783687
2925	0.795786
2966	1.01003
3007	0.808977
3048	0.771813
3089	0.777345
3130	0.764778
3171	0.764224
3212	0.794075
3253	0.810762
3294	0.833421
3335	0.853232
3376	0.8654
3417	0.903055
3458	0.888018
3499	0.876727
3540	0.924887
3581	0.913315
3622	0.945627
3663	0.94715
3704	0.937646
3745	0.95732
3786	0.985224
3827	1.00474
3868	1.00655
3909	1.02487
3950	1.0528
3991	1.06939
681	1.97303
722	4.16786
763	0.221141
804	0.895721
845	1.80709
886	1.18309
927	1.23046
968	2.13572
1009	2.62926
1050	2.20542
1091	3.74215
1132	2.03103
1173	0.834471
1214	2.9055
1255	3.34949
1296	0.89613
1337	1.4276
1378	0.207413
1419	0.126326
1460	0.173926
1501	0.430001
1542	0.0728842
1583	0.202344
1624	0.345789
1665	1.12098
1706	3.87992
1747	0.402671
1788	0.207265
1829	0.255586
1870	0.214531
1911	0.203491
1952	0.233251
1993	0.16557
2034	0.141448
2075	0.30889
2116	0.361121
2157	0.133833
2198	0.315115
2239	0.407359
2280	0.563804
2321	0.659747
2362	0.622393
2403	0.616992
2444	0.6198
2485	0.632734
2526	0.664403
2567	0.717085
2608	0.728219
2649	0.778035
2690	0.761924
2731	0.782668
2772	0.755507
2813	0.758231
2854	0.212587
2895	0.518402
2936	0.101757
2977	0.844495
3018	0.851656
3059	0.877259
3100	0.876476
3141	0.825858
3182	0.800805
3223	0.780967
3264	0.74122
3305	0.790255
3346	0.820595
3387	0.867704
3428	0.990219
3469	1.02865
3510	1.15457
3551	1.27428
3592	1.35006
3633	1.51617
3674	1.57521
3715	1.59693
3756	1.65106
3797	1.56659
3838	1.67736
3879	1.64297
3920	1.62812
3961	1.63365
651	1.73527
692	2.75304
733	2.43974
774	0.897073
815	1.38346
856	1.9689
897	1.47601
938	1.65002
979	2.16208
1020	3.52626
1061	3.01163
1102	4.11894
1143	1.29171
1184	1.46285
1225	4.12927
1266	3.48091
1307	0.6312
1348	0.796188
1389	0.511141
1430	0.163387
1471	0.529165
1512	0.239699
1553	0.221272
1594	0.406392
1635	0.802857
1676	1.98921
1717	4.39807
1758	-0.00922705
1799	-0.0123966
1840	0.00208044
1881	-0.0137312
1922	0.0218388
1963	0.0360202
2004	-0.00265549
2045	0.0103414
2086	0.1793
2127	0.160089
2168	0.107356
2209	0.186519
2250	0.244858
2291	0.374192
2332	0.390627
2373	0.408235
2414	0.417705
2455	0.429597
2496	0.462847
2537	0.487126
2578	0.508066
2619	0.548939
2660	0.576044
2701	0.582508
2742	0.618188
2783	0.636037
2824	0.662263
2865	0.724148
2906	0.800458
2947	0.853719
2988	0.850293
3029	0.744352
3070	0.791261
3111	0.775351
3152	0.75742
3193	0.754444
3234	0.777453
3275	0.793683
3316	0.826442
3357	0.846145
3398	0.866511
3439	0.928316
3480	0.870397
3521	0.920546
3562	0.960283
3603	0.965124
3644	0.99399
3685	0.980573
3726	1.00554
3767	1.03897
3808	1.05714
3849	1.05938
3890	1.08759
3931	1.1099
3972	1.11387
662	1.87133
703	3.50163
744	0.143604
785	1.22247
826	1.52496
867	2.4553
908	1.34004
949	1.81433
990	2.14828
1031	2.14729
1072	3.68225
1113	3.59152
1154	0.757046
1195	1.9519
1236	4.58325
1277	2.59195
1318	0.297579
1359	0.17743
1400	0.92145
1441	0.390681
1482	0.170325
1523	0.156704
1564	0.311745
1605	0.495538
1646	0.845168
1687	2.48818
1728	2.95285
1769	-0.0291802
1810	0.00891964
1851	-0.0322846
1892	-0.00704032
1933	0.0380989
1974	-0.0353826
2015	-0.0161849
2056	0.0782454
2097	0.168629
2138	0.110575
2179	0.124719
2220	0.192919
2261	0.315529
2302	0.369178
2343	0.406123
2384	0.430952
2425	0.420339
2466	0.441276
2507	0.4729
2548	0.512677
2589	0.53644
2630	0.574934
2671	0.589738
2712	0.604077
2753	0.639137
2794	0.666608
2835	0.684873
2876	0.756854
2917	0.733624
2958	0.94271
2999	0.82945
3040	0.767643
3081	0.810118
3122	0.792594
3163	0.78565
3204	0.787368
3245	0.814012
3286	0.83009
3327	0.846455
3368	0.864582
3409	0.901058
3450	0.934551
3491	0.921385
3532	0.957072
3573	0.986876
3614	1.03779
3655	1.04562
3696	1.05663
3737	1.09429
3778	1.09226
3819	1.12464
3860	1.14348
3901	1.17504
3942	1.18228
3983	1.19101
673	2.15134
714	4.36992
755	0.27456
796	1.35843
837	1.89908
878	2.02133
919	1.33325
960	2.16359
1001	2.50492
1042	2.6839
1083	4.43409
1124	3.53001
1165	0.933132
1206	2.80746
1247	4.5727
1288	2.0201
1329	0.524128
1370	0.587103
1411	1.61942
1452	0.58384
1493	0.109843
1534	0.132252
1575	0.591233
1616	0.654637
1657	1.29604
1698	3.5345
1739	1.58265
1780	-0.00544
1821	0.02069
1862	-0.0403208
1903	-0.0116132
1944	0.0583413
1985	0.0183675
2026	-0.0102284
2067	0.104142
2108	0.179299
2149	0.0853568
2190	0.138261
2231	0.210348
2272	0.284573
2313	0.34989
2354	0.365008
2395	0.387642
2436	0.388597
2477	0.419863
2518	0.460392
2559	0.479383
2600	0.502771
2641	0.540856
2682	0.545291
2723	0.571214
2764	0.600046
2805	0.644584
2846	0.666449
2887	0.758535
2928	0.696002
2969	1.00976
3010	0.79117
3051	0.764934
3092	0.754527
3133	0.745479
3174	0.732474
3215	0.755996
3256	0.762231
3297	0.79039
3338	0.812553
3379	0.816836
3420	0.90889
3461	0.867958
3502	0.883529
3543	0.92359
3584	0.93116
3625	0.976405
3666	0.959234
3707	0.974195
3748	1.00813
3789	1.02019
3830	1.02361
3871	1.07292
3912	1.06448
3953	1.0898
3994	1.10537
4000	1.10598