File: 1_FTIR_raw/Raw_plastics.csv
Wavenumber (cm^-1),LC,LC,LC,LC,LC,LC,LC,LC,LC,PET,PET,PET,PET,PET,PET,PET,PET,PET,WPET,WPET,WPET,WPET,WPET,WPET,WPET,WPET,WPET
3999.43,104.32,102.26,101.26,104.32,102.26,101.26,104.32,102.26,101.26,96.7,96.62,98,95.45,97.32,98.7,97.67,98.28,96.82,98.42,99.65,99.65,97.08,96.28,101.3,96.21,97.53,96.62
3986.39,104.25,102.14,101.1,104.25,102.14,101.1,104.25,102.14,101.1,96.77,96.67,98.06,95.48,97.36,98.8,97.64,98.31,96.86,98.43,99.54,99.54,97.05,96.29,101.31,96.2,97.42,96.63
3973.34,104.28,102.21,101.19,104.28,102.21,101.19,104.28,102.21,101.19,96.64,96.6,98.02,95.39,97.38,98.71,97.67,98.29,96.8,98.4,99.65,99.65,97.09,96.2,101.25,96.25,97.46,96.54
3960.3,104.15,102.11,101.09,104.15,102.11,101.09,104.15,102.11,101.09,96.65,96.58,97.94,95.36,97.24,98.63,97.55,98.14,96.65,98.31,99.63,99.63,97.04,96.19,101.23,96.18,97.31,96.52
3947.25,104.23,102.07,101.16,104.23,102.07,101.16,104.23,102.07,101.16,96.61,96.49,98.07,95.45,97.34,98.67,97.54,98.25,96.85,98.22,99.42,99.42,97.07,96.26,101.1,96.17,97.39,96.49
3934.21,104.03,101.94,101.19,104.03,101.94,101.19,104.03,101.94,101.19,96.45,96.34,97.85,95.28,97.26,98.61,97.54,98.13,96.58,98.35,99.51,99.51,97.15,96.25,101.11,96.2,97.42,96.48
3921.16,103.88,101.82,101.07,103.88,101.82,101.07,103.88,101.82,101.07,96.26,96.29,98.02,95.45,97.33,98.71,97.57,98.24,96.68,98.24,99.53,99.53,97.09,96.25,101.17,96.2,97.49,96.43
3908.11,103.89,101.8,100.95,103.89,101.8,100.95,103.89,101.8,100.95,96.14,96.22,97.83,95.34,97.19,98.58,97.52,98.18,96.49,98.03,99.32,99.32,97.09,96.32,100.98,96.25,97.49,96.52
3895.07,103.85,101.91,101.03,103.85,101.91,101.03,103.85,101.91,101.03,96.38,96.42,98.01,95.48,97.33,98.62,97.65,98.27,96.79,98.13,99.28,99.28,97.09,96.27,100.84,96.15,97.41,96.43
3882.02,104.09,102.25,101.26,104.09,102.25,101.26,104.09,102.25,101.26,96.66,96.6,98.05,95.41,97.29,98.66,97.65,98.29,96.74,98.39,99.26,99.26,97.13,96.33,100.81,96.09,97.26,96.59
3868.98,103.67,101.64,100.93,103.67,101.64,100.93,103.67,101.64,100.93,96.47,96.34,97.99,95.52,97.35,98.73,97.62,98.24,97.01,98.12,99.17,99.17,97.13,96.43,100.67,96.26,97.32,96.51
3855.93,104.06,101.87,100.85,104.06,101.87,100.85,104.06,101.87,100.85,95.59,95.7,97.47,94.96,96.76,98.44,97.25,97.95,95.86,97.29,98.54,98.54,96.6,95.85,100.2,95.88,97.18,95.66
3842.89,103.61,101.52,100.97,103.61,101.52,100.97,103.61,101.52,100.97,96.06,96.08,97.97,95.34,97.1,98.6,97.45,98.05,96.33,97.84,98.9,98.9,96.95,96.13,100.61,96.02,97.27,96.19
3829.84,103.74,101.84,101.08,103.74,101.84,101.08,103.74,101.84,101.08,96.7,96.67,98.11,95.5,97.34,98.63,97.63,98.19,96.88,98.23,99.33,99.33,97.1,96.25,100.79,96.15,97.29,96.53
3816.79,104.3,102.31,101.3,104.3,102.31,101.3,104.3,102.31,101.3,96.78,96.7,98.2,95.47,97.34,98.66,97.7,98.4,97.07,98.68,99.66,99.66,97.1,96.17,101.17,96.29,97.37,96.72
3803.75,104.09,101.96,101.06,104.09,101.96,101.06,104.09,101.96,101.06,96.27,96.22,97.89,95.34,97.08,98.56,97.45,98.25,96.47,97.65,98.81,98.81,96.98,96.02,100.34,96.12,97.34,96.28
3790.7,104.08,102.04,101.29,104.08,102.04,101.29,104.08,102.04,101.29,96.57,96.75,98.07,95.45,97.37,98.69,97.59,98.17,96.79,98.43,99.59,99.59,97.05,96.27,101.14,96.16,97.35,96.52
3777.66,103.99,102.01,101.12,103.99,102.01,101.12,103.99,102.01,101.12,96.72,96.81,98.14,95.53,97.42,98.7,97.74,98.36,97.03,98.38,99.38,99.38,97.26,96.3,101.02,96.21,97.41,96.6
3764.61,103.79,101.92,101.03,103.79,101.92,101.03,103.79,101.92,101.03,96.6,96.51,98.08,95.48,97.35,98.48,97.53,98.1,96.92,98.32,99.49,99.49,97.12,96.24,100.98,96.14,97.31,96.51
3751.57,104.02,101.76,101.03,104.02,101.76,101.03,104.02,101.76,101.03,96.35,96.41,98.17,95.48,97.26,98.73,97.44,98.27,96.65,97.76,98.67,98.67,97.24,96.18,100.07,96.21,97.17,96.35
3738.52,103.84,101.77,101.11,103.84,101.77,101.11,103.84,101.77,101.11,96.12,96.16,98,95.5,97.28,98.63,97.66,98.11,96.6,97.5,98.52,98.52,96.9,96.06,100.01,96.05,97.35,96.17
3725.47,103.44,101.49,100.75,103.44,101.49,100.75,103.44,101.49,100.75,96.3,96.3,98.07,95.5,97.42,98.51,97.55,98.17,96.8,98.18,99.1,99.1,97.09,96.18,100.77,96.12,97.29,96.41
3712.43,103.88,101.86,101.13,103.88,101.86,101.13,103.88,101.86,101.13,96.46,96.4,97.93,95.43,97.3,98.59,97.42,98.19,96.62,97.99,98.86,98.86,97.19,96.12,100.35,96.21,97.29,96.27
3699.38,103.82,101.96,101.03,103.82,101.96,101.03,103.82,101.96,101.03,96.76,96.74,98.14,95.57,97.34,98.62,97.62,98.2,96.93,98.3,99.35,99.35,97.28,96.32,100.91,96.25,97.45,96.61
3686.34,103.89,101.96,101.06,103.89,101.96,101.06,103.89,101.96,101.06,96.96,96.84,98.25,95.61,97.43,98.54,97.77,98.23,97.3,98.41,99.43,99.43,97.22,96.37,100.93,96.25,97.25,96.68
3673.29,103.26,101.46,100.91,103.26,101.46,100.91,103.26,101.46,100.91,96.25,96.28,98.06,95.48,97.33,98.53,97.51,98.03,96.87,97.66,98.81,98.81,97.02,96.18,100.22,95.85,97.08,96.26
3660.25,103.79,101.72,101.01,103.79,101.72,101.01,103.79,101.72,101.01,96.13,96.24,97.79,95.19,97.18,98.43,97.39,97.96,96.45,97.99,99.18,99.18,96.95,96.09,100.85,95.96,97.17,96.2
3647.2,103.58,101.88,101.08,103.58,101.88,101.08,103.58,101.88,101.08,96.58,96.45,98.19,95.37,97.36,98.5,97.56,98.06,97.17,98.34,99.34,99.34,97.16,96.22,100.88,96.01,97.04,96.58
3634.15,103.59,101.44,100.71,103.59,101.44,100.71,103.59,101.44,100.71,95.84,96,97.71,95.22,97.05,98.34,97.38,97.8,96.46,97.78,99.27,99.27,96.88,96.03,100.94,95.99,97.25,96.06
3621.11,103.79,101.62,100.53,103.79,101.62,100.53,103.79,101.62,100.53,96.03,96.14,97.97,95.15,97.09,98.49,97.37,97.87,96.44,97.69,98.88,98.88,96.87,95.92,100.67,95.74,97.05,96.05
3608.06,103.75,101.59,100.67,103.75,101.59,100.67,103.75,101.59,100.67,96.45,96.38,97.98,95.34,97.34,98.5,97.48,98.05,96.84,98.06,99.16,99.16,97.1,95.99,100.96,95.98,97.12,96.37
3595.02,104.04,101.69,100.83,104.04,101.69,100.83,104.04,101.69,100.83,96.43,96.53,97.99,95.53,97.54,98.6,97.73,98.21,96.91,98.18,99.45,99.45,97.05,96.03,101.31,96.15,97.24,96.3
3581.97,103.98,101.75,100.68,103.98,101.75,100.68,103.98,101.75,100.68,96.48,96.56,98.03,95.54,97.38,98.65,97.67,98.18,97.01,98.06,99.42,99.42,97.14,96.11,101.47,96.16,97.4,96.5
3568.93,103.89,101.28,100.35,103.89,101.28,100.35,103.89,101.28,100.35,95.87,96.07,97.83,95.01,96.94,98.28,97.21,97.81,96.34,97.4,98.75,98.75,96.97,96.09,100.91,96.01,97.28,96.25
3555.88,103.94,101.63,100.53,103.94,101.63,100.53,103.94,101.63,100.53,96.44,96.57,97.87,95.24,97.23,98.57,97.45,98.06,96.67,98.01,99.48,99.48,97.07,95.95,101.58,95.94,97.28,96.28
3542.83,103.89,101.58,100.29,103.89,101.58,100.29,103.89,101.58,100.29,96.62,96.77,98.19,95.37,97.45,98.73,97.61,98.14,96.97,97.86,99.26,99.26,96.92,95.85,101.48,96.03,97.15,96.35
3529.79,103.91,101.42,100.5,103.91,101.42,100.5,103.91,101.42,100.5,96.41,96.46,98.01,95.23,97.23,98.53,97.59,97.96,96.81,97.84,99.37,99.37,97.11,95.95,101.6,96.2,97.38,96.34
3516.74,104.1,101.61,100.43,104.1,101.61,100.43,104.1,101.61,100.43,96.54,96.61,97.98,95.31,97.36,98.55,97.6,98.06,96.89,97.89,99.46,99.46,97.15,95.9,101.84,96.11,97.46,96.53
3503.7,104.05,101.33,100.57,104.05,101.33,100.57,104.05,101.33,100.57,96.67,96.66,98.15,95.64,97.51,98.6,97.66,98.11,97.06,97.79,99.45,99.45,97.1,95.95,101.87,96.19,97.35,96.38
3490.65,103.95,101.4,100.4,103.95,101.4,100.4,103.95,101.4,100.4,96.64,96.75,98.01,95.37,97.52,98.57,97.5,98.04,96.96,97.92,99.57,99.57,97.21,96.1,102.2,96.36,97.5,96.69
3477.61,103.88,101.17,100.26,103.88,101.17,100.26,103.88,101.17,100.26,96.71,96.75,98.18,95.53,97.56,98.71,97.81,98.28,97.17,97.71,99.48,99.48,97.28,95.98,102.13,96.21,97.63,96.55
3464.56,103.72,101.26,100.27,103.72,101.26,100.27,103.72,101.26,100.27,96.83,96.88,98.1,95.49,97.39,98.56,97.66,98.05,97.07,97.66,99.44,99.44,97.17,96.1,102.33,96.16,97.36,96.54
3451.51,103.5,100.91,100.07,103.5,100.91,100.07,103.5,100.91,100.07,96.36,96.44,97.92,95.26,97.25,98.46,97.55,97.95,96.86,97.6,99.34,99.34,97.15,95.91,102.26,96.16,97.34,96.38
3438.47,103.64,101.14,100.24,103.64,101.14,100.24,103.64,101.14,100.24,96.08,96.17,97.78,94.89,97.11,98.31,97.34,97.69,96.63,97.13,99.01,99.01,96.78,95.57,102.12,95.77,97.08,96.02
3425.42,103.57,101.01,100.09,103.57,101.01,100.09,103.57,101.01,100.09,96.11,96.16,97.68,94.91,97.16,98.34,97.31,97.71,96.47,97.08,99.26,99.26,96.7,95.43,102.31,95.8,96.96,96.01
3412.38,103.51,100.79,99.9,103.51,100.79,99.9,103.51,100.79,99.9,96.38,96.4,98.1,95.1,97.39,98.45,97.46,97.84,96.79,97.13,99.2,99.2,97.06,95.87,102.33,96.05,97.36,96.41
3399.33,103.58,101.03,100.1,103.58,101.03,100.1,103.58,101.03,100.1,96.57,96.71,97.98,95.27,97.38,98.41,97.52,97.82,96.97,97.22,99.3,99.3,97.25,95.97,102.47,96.19,97.39,96.55
3386.29,103.58,100.84,100.24,103.58,100.84,100.24,103.58,100.84,100.24,96.49,96.7,98.02,95.3,97.36,98.47,97.52,97.94,96.94,97.3,99.31,99.31,97.11,95.91,102.54,96.2,97.38,96.51
3373.24,103.5,100.92,100.22,103.5,100.92,100.22,103.5,100.92,100.22,96.55,96.7,97.99,95.26,97.43,98.36,97.56,97.9,97,97.03,99.15,99.15,96.93,95.78,102.48,96.05,97.35,96.55
3360.2,103.43,100.84,100.21,103.43,100.84,100.21,103.43,100.84,100.21,96.68,96.64,98.16,95.37,97.37,98.51,97.49,97.91,96.95,96.98,99.28,99.28,97.18,95.88,102.61,96.25,97.43,96.58
3347.15,103.45,100.79,100.24,103.45,100.79,100.24,103.45,100.79,100.24,96.51,96.67,98.07,95.29,97.39,98.47,97.62,97.91,96.93,97,99.15,99.15,97.09,95.92,102.77,96.21,97.54,96.64
3334.1,103.23,100.81,100.17,103.23,100.81,100.17,103.23,100.81,100.17,96.63,96.66,97.99,95.16,97.34,98.41,97.49,97.86,96.85,96.78,99.05,99.05,97.12,95.88,102.45,96.19,97.45,96.57
3321.06,103.21,100.65,100.26,103.21,100.65,100.26,103.21,100.65,100.26,96.5,96.55,97.99,95.17,97.25,98.37,97.41,97.78,96.88,96.59,98.96,98.96,97.16,95.83,102.47,96.17,97.31,96.58
3308.01,103.2,100.62,100.26,103.2,100.62,100.26,103.2,100.62,100.26,96.55,96.68,98.02,95.19,97.38,98.44,97.49,97.8,96.91,96.57,98.97,98.97,97.05,95.84,102.71,96.23,97.33,96.55
3294.97,103.12,100.5,100,103.12,100.5,100,103.12,100.5,100,96.52,96.61,98.05,95.22,97.34,98.42,97.58,97.9,96.84,96.61,99.04,99.04,97.1,95.77,102.7,96.21,97.33,96.5
3281.92,103.25,100.78,100.14,103.25,100.78,100.14,103.25,100.78,100.14,96.59,96.75,98.1,95.28,97.41,98.44,97.47,97.88,96.98,96.58,99.01,99.01,97.11,95.94,102.75,96.23,97.46,96.71
3268.88,103.1,100.53,100.18,103.1,100.53,100.18,103.1,100.53,100.18,96.67,96.64,98.01,95.3,97.27,98.4,97.46,97.77,96.96,96.56,99.03,99.03,97.18,95.95,102.73,96.28,97.31,96.64
3255.83,102.99,100.55,100.3,102.99,100.55,100.3,102.99,100.55,100.3,96.51,96.63,98.15,95.32,97.38,98.45,97.55,97.87,96.96,96.63,98.95,98.95,97.14,95.92,102.69,96.26,97.41,96.65
3242.78,102.99,100.68,100.17,102.99,100.68,100.17,102.99,100.68,100.17,96.65,96.66,98.05,95.37,97.41,98.49,97.51,97.81,96.92,96.62,98.92,98.92,97.01,95.84,102.38,96.06,97.27,96.4
3229.74,103,100.64,100.26,103,100.64,100.26,103,100.64,100.26,96.56,96.61,98.16,95.4,97.4,98.5,97.52,97.97,96.99,96.78,98.99,98.99,97.23,95.86,102.59,96.2,97.27,96.52
3216.69,103.06,100.77,100.32,103.06,100.77,100.32,103.06,100.77,100.32,96.56,96.69,98.1,95.28,97.45,98.44,97.49,97.9,96.88,96.62,98.81,98.81,97.13,95.94,102.26,96.12,97.32,96.56
3203.65,102.93,100.62,100.36,102.93,100.62,100.36,102.93,100.62,100.36,96.47,96.7,98.08,95.34,97.45,98.41,97.6,97.89,97.01,96.81,98.88,98.88,97.07,95.93,102.31,96.13,97.37,96.57
3190.6,102.84,100.59,100.28,102.84,100.59,100.28,102.84,100.59,100.28,96.49,96.64,98.13,95.27,97.4,98.33,97.49,97.88,97.05,96.8,98.84,98.84,97.19,96.01,102.23,96.25,97.41,96.63
3177.56,102.88,100.77,100.32,102.88,100.77,100.32,102.88,100.77,100.32,96.46,96.58,98.11,95.34,97.41,98.42,97.55,97.97,96.93,96.88,98.78,98.78,97.18,95.95,102.11,96.12,97.32,96.51
3164.51,103.03,100.74,100.46,103.03,100.74,100.46,103.03,100.74,100.46,96.49,96.71,98.14,95.35,97.37,98.4,97.51,97.88,97.04,97.03,98.94,98.94,97.21,95.97,102.08,96.11,97.28,96.48
3151.46,102.94,100.83,100.39,102.94,100.83,100.39,102.94,100.83,100.39,96.5,96.63,98.08,95.23,97.4,98.33,97.46,97.8,96.97,96.95,98.75,98.75,97.1,95.87,101.86,96.12,97.21,96.42
3138.42,102.93,100.8,100.47,102.93,100.8,100.47,102.93,100.8,100.47,96.35,96.56,98.07,95.26,97.44,98.44,97.4,97.79,96.95,97.01,98.73,98.73,97.09,95.93,101.89,96.03,97.23,96.39
3125.37,102.79,100.77,100.34,102.79,100.77,100.34,102.79,100.77,100.34,96.23,96.3,97.99,95.16,97.33,98.27,97.33,97.76,96.82,97.01,98.66,98.66,97.07,95.81,101.63,95.92,97.1,96.29
3112.33,102.87,100.84,100.45,102.87,100.84,100.45,102.87,100.84,100.45,96.2,96.38,97.95,95.11,97.43,98.34,97.35,97.71,96.77,96.9,98.62,98.62,96.95,95.72,101.55,95.85,97,96.11
3099.28,102.68,100.81,100.35,102.68,100.81,100.35,102.68,100.81,100.35,96.05,96.21,97.86,94.95,97.24,98.2,97.32,97.61,96.61,96.87,98.54,98.54,96.87,95.63,101.49,95.69,96.83,96.04
3086.24,102.63,100.73,100.31,102.63,100.73,100.31,102.63,100.73,100.31,96.1,96.26,97.86,94.85,97.15,98.13,97.19,97.5,96.58,96.84,98.46,98.46,96.81,95.56,101.38,95.69,96.86,95.98
3073.19,102.51,100.72,100.25,102.51,100.72,100.25,102.51,100.72,100.25,95.93,96.04,97.8,94.81,97.16,98.13,97.21,97.48,96.46,96.88,98.45,98.45,96.7,95.49,101.42,95.58,96.75,95.83
3060.14,102.49,100.64,100.21,102.49,100.64,100.21,102.49,100.64,100.21,95.87,96.03,97.79,94.68,97.17,98.16,97.12,97.49,96.47,96.94,98.49,98.49,96.78,95.52,101.42,95.59,96.73,95.83
3047.1,102.72,100.95,100.35,102.72,100.95,100.35,102.72,100.95,100.35,96,96.11,97.88,94.92,97.22,98.26,97.28,97.67,96.59,96.91,98.53,98.53,96.76,95.57,101.37,95.69,96.81,95.98
3034.05,102.64,100.85,100.4,102.64,100.85,100.4,102.64,100.85,100.4,96.2,96.42,97.95,95.05,97.34,98.27,97.3,97.65,96.8,97.07,98.59,98.59,96.85,95.65,101.4,95.82,96.89,96.05
3021.01,102.53,100.9,100.45,102.53,100.9,100.45,102.53,100.9,100.45,95.99,96.09,97.93,94.85,97.25,98.12,97.2,97.45,96.65,97.01,98.47,98.47,96.85,95.62,101.36,95.67,96.83,96.01
3007.96,102.09,100.66,100.15,102.09,100.66,100.15,102.09,100.66,100.15,95.57,95.69,97.52,94.44,96.91,97.94,96.9,97.17,96.16,96.94,98.37,98.37,96.48,95.14,101.32,95.22,96.45,95.44
2994.92,101.91,100.54,99.89,101.91,100.54,99.89,101.91,100.54,99.89,95.29,95.45,97.32,94.16,96.82,97.85,96.8,96.99,95.87,96.86,98.12,98.12,96.34,95,101.25,95.14,96.3,95.19
2981.87,101.28,100.33,99.49,101.28,100.33,99.49,101.28,100.33,99.49,94.88,94.9,96.96,93.61,96.5,97.51,96.49,96.56,95.4,96.49,97.94,97.94,96.04,94.59,101.21,94.63,95.96,94.64
2968.82,99.96,99.47,98.53,99.96,99.47,98.53,99.96,99.47,98.53,93.91,93.92,96.41,92.62,95.92,97.06,95.95,95.97,94.35,96.03,97.69,97.69,95.19,93.73,101.43,93.82,95.23,93.62
2955.78,99.55,99.46,98,99.55,99.46,98,99.55,99.46,98,94.16,94.24,96.6,92.88,96.1,97.32,96.1,96.31,94.63,96.55,98.28,98.28,95.39,93.96,102.42,94.19,95.6,94.08
2942.73,98.26,98.77,97.07,98.26,98.77,97.07,98.26,98.77,97.07,95.01,95.15,97.25,93.84,96.67,97.77,96.72,97.06,95.64,97.13,98.93,98.93,96.13,94.63,103.09,95.01,96.33,95.11
2929.69,96.36,97.92,95.68,96.36,97.92,95.68,96.36,97.92,95.68,95.45,95.67,97.56,94.39,97.03,97.98,96.91,97.26,96.19,98.15,100.71,100.71,96.6,95.05,105.65,95.72,96.89,95.94
2916.64,99.54,99.95,97.88,99.54,99.95,97.88,99.54,99.95,97.88,95.37,95.52,97.5,94.2,96.9,97.79,96.83,97.01,96.02,97.84,100.37,100.37,96.46,94.93,105.18,95.43,96.72,95.62
2903.6,100.08,99.89,98.65,100.08,99.89,98.65,100.08,99.89,98.65,95.01,95.13,97.16,93.85,96.62,97.68,96.59,96.91,95.59,97.05,98.85,98.85,96.15,94.64,102.89,94.97,96.23,95.08
2890.55,100.45,99.96,98.86,100.45,99.96,98.86,100.45,99.96,98.86,95.26,95.44,97.45,94.16,96.83,97.75,96.77,97.03,95.98,96.94,98.56,98.56,96.28,94.97,102.16,95.13,96.33,95.3
2877.5,100.57,99.9,99.08,100.57,99.9,99.08,100.57,99.9,99.08,95.37,95.58,97.48,94.3,96.97,97.85,96.86,97.13,96.13,97.01,98.51,98.51,96.44,95,101.9,95.15,96.38,95.43
2864.46,99.01,99.07,98.23,99.01,99.07,98.23,99.01,99.07,98.23,95.43,95.65,97.66,94.48,97.05,97.89,96.93,97.25,96.26,97.23,98.81,98.81,96.53,95.12,102.32,95.34,96.55,95.62
2851.41,99.87,100.06,98.56,99.87,100.06,98.56,99.87,100.06,98.56,95.61,95.83,97.67,94.57,97.16,97.98,97.02,97.34,96.37,97.66,99.58,99.58,96.66,95.22,103.55,95.56,96.77,95.86
2838.37,102.02,100.72,100.16,102.02,100.72,100.16,102.02,100.72,100.16,95.77,96.03,97.85,94.8,97.24,98.08,97.09,97.49,96.63,97.26,98.49,98.49,96.8,95.45,101.57,95.6,96.71,95.88
2825.32,102.08,100.53,100.23,102.08,100.53,100.23,102.08,100.53,100.23,95.88,96.14,97.92,94.89,97.3,98.13,97.16,97.54,96.78,97.33,98.35,98.35,96.88,95.55,101.21,95.67,96.76,95.96
2812.28,102.13,100.51,100.29,102.13,100.51,100.29,102.13,100.51,100.29,95.83,96.12,97.95,94.89,97.35,98.13,97.15,97.53,96.78,97.19,98.21,98.21,96.9,95.54,100.93,95.6,96.67,95.92
2799.23,102.19,100.58,100.35,102.19,100.58,100.35,102.19,100.58,100.35,95.85,96.07,97.93,94.93,97.35,98.14,97.14,97.56,96.81,97.24,98.21,98.21,96.89,95.6,100.81,95.57,96.68,95.92
2786.19,102.27,100.59,100.47,102.27,100.59,100.47,102.27,100.59,100.47,95.92,96.22,98.01,94.99,97.4,98.16,97.23,97.62,96.87,97.4,98.19,98.19,96.96,95.67,100.82,95.74,96.76,96.07
2773.14,102.35,100.69,100.52,102.35,100.69,100.52,102.35,100.69,100.52,95.98,96.25,98.08,95.06,97.42,98.16,97.28,97.65,96.93,97.45,98.24,98.24,96.97,95.69,100.88,95.68,96.77,96.11
2760.09,102.27,100.66,100.47,102.27,100.66,100.47,102.27,100.66,100.47,95.98,96.28,98.06,95.09,97.46,98.2,97.23,97.62,96.97,97.41,98.24,98.24,96.98,95.67,100.76,95.72,96.76,96.08
2747.05,102.36,100.65,100.51,102.36,100.65,100.51,102.36,100.65,100.51,95.95,96.25,98.12,95.09,97.5,98.18,97.29,97.65,97.01,97.37,98.2,98.2,97.05,95.68,100.61,95.73,96.77,96.12
2734,102.32,100.72,100.46,102.32,100.72,100.46,102.32,100.72,100.46,95.97,96.31,98.1,95.1,97.49,98.19,97.23,97.65,96.99,97.36,98.18,98.18,97,95.69,100.55,95.73,96.75,96.13
2720.96,102.31,100.68,100.48,102.31,100.68,100.48,102.31,100.68,100.48,96.04,96.36,98.14,95.16,97.52,98.25,97.31,97.72,97.09,97.45,98.21,98.21,97.05,95.76,100.53,95.79,96.77,96.16
2707.91,102.43,100.73,100.57,102.43,100.73,100.57,102.43,100.73,100.57,96.08,96.45,98.13,95.15,97.52,98.2,97.32,97.68,97.09,97.46,98.24,98.24,97.09,95.79,100.5,95.79,96.83,96.19
2694.87,102.35,100.74,100.57,102.35,100.74,100.57,102.35,100.74,100.57,96.03,96.43,98.14,95.21,97.49,98.19,97.29,97.73,97.16,97.51,98.25,98.25,97.17,95.82,100.51,95.86,96.87,96.26
2681.82,102.33,100.71,100.51,102.33,100.71,100.51,102.33,100.71,100.51,96.06,96.38,98.16,95.19,97.55,98.21,97.31,97.67,97.15,97.52,98.28,98.28,97.15,95.83,100.49,95.84,96.84,96.26
2668.77,102.3,100.74,100.5,102.3,100.74,100.5,102.3,100.74,100.5,96.06,96.43,98.2,95.25,97.59,98.25,97.34,97.73,97.18,97.53,98.23,98.23,97.11,95.79,100.41,95.81,96.8,96.22
2655.73,102.35,100.71,100.54,102.35,100.71,100.54,102.35,100.71,100.54,95.96,96.3,98.16,95.16,97.49,98.14,97.25,97.62,97.06,97.4,98.14,98.14,97.12,95.74,100.35,95.71,96.73,96.14
2642.68,102.35,100.72,100.56,102.35,100.72,100.56,102.35,100.72,100.56,95.99,96.36,98.17,95.18,97.51,98.13,97.28,97.67,97.08,97.45,98.2,98.2,97.11,95.65,100.32,95.68,96.72,96.08
2629.64,102.4,100.75,100.49,102.4,100.75,100.49,102.4,100.75,100.49,95.97,96.38,98.19,95.19,97.47,98.13,97.27,97.66,97.1,97.42,98.15,98.15,97.1,95.69,100.27,95.72,96.75,96.17
2616.59,102.32,100.73,100.45,102.32,100.73,100.45,102.32,100.73,100.45,96.07,96.47,98.22,95.24,97.52,98.17,97.28,97.72,97.11,97.55,98.26,98.26,97.17,95.75,100.34,95.77,96.76,96.18
2603.55,102.5,100.83,100.7,102.5,100.83,100.7,102.5,100.83,100.7,96.04,96.46,98.17,95.19,97.57,98.22,97.27,97.72,97.24,97.62,98.36,98.36,97.15,95.79,100.36,95.76,96.83,96.21
2590.5,102.49,100.78,100.68,102.49,100.78,100.68,102.49,100.78,100.68,96.13,96.54,98.27,95.33,97.57,98.17,97.39,97.76,97.26,97.69,98.33,98.33,97.25,95.86,100.3,95.81,96.85,96.24
2577.45,102.26,100.7,100.55,102.26,100.7,100.55,102.26,100.7,100.55,96.11,96.55,98.2,95.37,97.56,98.25,97.38,97.74,97.26,97.73,98.34,98.34,97.31,95.85,100.35,95.93,96.89,96.34
2564.41,102.44,100.78,100.6,102.44,100.78,100.6,102.44,100.78,100.6,96.23,96.63,98.28,95.44,97.64,98.19,97.37,97.77,97.36,97.71,98.42,98.42,97.25,95.91,100.25,95.88,96.86,96.32
2551.36,102.42,100.79,100.64,102.42,100.79,100.64,102.42,100.79,100.64,96.25,96.6,98.31,95.46,97.76,98.28,97.41,97.83,97.36,97.71,98.33,98.33,97.29,95.93,100.31,95.99,96.88,96.29
2538.32,102.27,100.73,100.55,102.27,100.73,100.55,102.27,100.73,100.55,96.24,96.68,98.25,95.35,97.67,98.26,97.38,97.68,97.32,97.67,98.4,98.4,97.32,95.95,100.29,96,96.95,96.39
2525.27,102.34,100.79,100.62,102.34,100.79,100.62,102.34,100.79,100.62,96.24,96.65,98.33,95.45,97.69,98.27,97.37,97.75,97.33,97.82,98.37,98.37,97.34,95.98,100.28,95.93,96.97,96.37
2512.23,102.23,100.68,100.55,102.23,100.68,100.55,102.23,100.68,100.55,96.25,96.7,98.29,95.6,97.78,98.3,97.46,97.88,97.46,97.79,98.31,98.31,97.36,95.98,100.25,95.99,96.93,96.33
2499.18,102.25,100.74,100.55,102.25,100.74,100.55,102.25,100.74,100.55,96.27,96.64,98.39,95.55,97.82,98.31,97.45,97.84,97.53,97.86,98.44,98.44,97.35,96.01,100.34,95.99,96.92,96.39
2486.13,102.28,100.69,100.58,102.28,100.69,100.58,102.28,100.69,100.58,96.31,96.69,98.39,95.61,97.84,98.36,97.56,97.92,97.6,97.86,98.48,98.48,97.51,96.06,100.35,96.11,97.09,96.48
2473.09,102.15,100.71,100.6,102.15,100.71,100.6,102.15,100.71,100.6,96.29,96.71,98.36,95.64,97.81,98.28,97.59,97.92,97.64,97.91,98.4,98.4,97.47,96.05,100.26,96.02,96.96,96.46
2460.04,102.36,100.84,100.63,102.36,100.84,100.63,102.36,100.84,100.63,96.38,96.83,98.41,95.58,97.8,98.44,97.57,97.98,97.63,98.01,98.38,98.38,97.45,96.14,100.2,96.05,96.96,96.56
2447,102.35,100.7,100.7,102.35,100.7,100.7,102.35,100.7,100.7,96.32,96.75,98.47,95.68,97.82,98.34,97.56,97.92,97.66,97.83,98.34,98.34,97.42,96.09,100.24,96.06,96.97,96.57
2433.95,102.29,100.73,100.58,102.29,100.73,100.58,102.29,100.73,100.58,96.34,96.76,98.37,95.63,97.88,98.36,97.47,97.95,97.6,98.02,98.43,98.43,97.54,96.15,100.28,96.06,96.96,96.59
2420.91,102.23,100.74,100.56,102.23,100.74,100.56,102.23,100.74,100.56,96.22,96.78,98.44,95.68,97.92,98.32,97.52,97.98,97.57,97.88,98.39,98.39,97.41,96.03,100.27,95.94,96.98,96.47
2407.86,102.19,100.74,100.53,102.19,100.74,100.53,102.19,100.74,100.53,96.26,96.72,98.36,95.54,97.74,98.32,97.46,97.91,97.47,97.84,98.25,98.25,97.31,95.98,100.11,95.94,96.81,96.45
2394.81,102.18,100.74,100.57,102.18,100.74,100.57,102.18,100.74,100.57,96.31,96.6,98.41,95.58,97.82,98.35,97.53,97.96,97.48,97.77,98.24,98.24,97.31,95.96,100.06,95.98,96.85,96.38
2381.77,102.1,100.62,100.46,102.1,100.62,100.46,102.1,100.62,100.46,96.09,96.56,98.35,95.47,97.78,98.22,97.51,97.83,97.36,97.72,98.12,98.12,97.3,96.03,99.98,96.02,96.85,96.4
2368.72,102.01,100.71,100.49,102.01,100.71,100.49,102.01,100.71,100.49,96.44,96.89,98.4,95.53,97.87,98.23,97.4,97.9,97.43,97.79,98.23,98.23,97.43,96.18,99.97,95.96,96.85,96.35
2355.68,102.08,100.68,100.54,102.08,100.68,100.54,102.08,100.68,100.54,96.68,97.01,98.52,95.68,97.92,98.43,97.66,97.98,97.72,97.89,98.2,98.2,97.45,96.21,100.06,95.99,96.95,96.46
2342.63,101.98,100.59,100.52,101.98,100.59,100.52,101.98,100.59,100.52,96.26,96.7,98.42,95.54,97.77,98.24,97.38,97.88,97.29,97.79,98.18,98.18,97.46,96.13,99.89,96.01,96.86,96.37
2329.59,102.09,100.65,100.54,102.09,100.65,100.54,102.09,100.65,100.54,96.49,96.96,98.58,95.62,97.88,98.35,97.59,98,97.66,97.73,98.08,98.08,97.48,96.17,99.78,96,96.86,96.43
2316.54,102.1,100.66,100.44,102.1,100.66,100.44,102.1,100.66,100.44,96.31,96.77,98.48,95.56,97.76,98.26,97.36,97.87,97.45,97.69,98.11,98.11,97.45,95.97,99.75,95.88,96.7,96.37
2303.49,102.13,100.57,100.53,102.13,100.57,100.53,102.13,100.57,100.53,96.26,96.85,98.42,95.62,97.76,98.25,97.44,97.9,97.5,97.81,98.22,98.22,97.48,96.11,99.89,95.98,96.94,96.52
2290.45,102.17,100.72,100.61,102.17,100.72,100.61,102.17,100.72,100.61,96.2,96.72,98.51,95.59,97.82,98.22,97.41,97.87,97.59,97.8,98.27,98.27,97.44,96,99.86,95.91,96.87,96.46
2277.4,102.2,100.72,100.46,102.2,100.72,100.46,102.2,100.72,100.46,96.42,96.98,98.53,95.78,97.93,98.37,97.54,98.04,97.73,98.06,98.4,98.4,97.61,96.21,99.9,96.19,97.04,96.67
2264.36,102.29,100.73,100.55,102.29,100.73,100.55,102.29,100.73,100.55,96.65,97.11,98.8,96.06,98.16,98.43,97.76,98.26,98.02,98.23,98.69,98.69,97.9,96.47,100.2,96.32,97.24,96.99
2251.31,102.47,101.04,100.76,102.47,101.04,100.76,102.47,101.04,100.76,96.77,97.29,98.71,96.17,98.18,98.38,97.83,98.29,98.12,98.43,98.8,98.8,98,96.49,100.35,96.73,97.5,97.21
2238.27,102.49,100.72,100.67,102.49,100.72,100.67,102.49,100.72,100.67,97,97.38,98.85,96.25,98.37,98.61,97.8,98.36,98.29,98.49,98.86,98.86,98.06,96.5,100.36,96.61,97.48,97.21
2225.22,102.56,100.91,100.86,102.56,100.91,100.86,102.56,100.91,100.86,97.22,97.66,98.82,96.52,98.37,98.75,98.06,98.52,98.4,98.5,99,99,98.28,96.8,100.37,96.8,97.62,97.42
2212.18,102.46,100.78,100.61,102.46,100.78,100.61,102.46,100.78,100.61,97.53,97.97,98.99,96.87,98.39,98.91,98.12,98.81,98.42,98.97,99.18,99.18,98.29,96.77,100.4,96.99,97.75,97.54
2199.13,102.57,100.97,100.69,102.57,100.97,100.69,102.57,100.97,100.69,97.75,98.22,99.14,96.99,98.5,98.9,98.18,98.8,98.91,99.15,99.7,99.7,98.49,97.12,100.67,97.03,97.91,97.81
2186.08,102.71,100.87,100.95,102.71,100.87,100.95,102.71,100.87,100.95,97.78,98.29,99.22,96.96,98.47,99.03,98.2,98.92,98.72,99.3,99.46,99.46,98.35,96.93,100.9,97.21,97.79,97.49
2173.04,102.71,100.97,100.68,102.71,100.97,100.68,102.71,100.97,100.68,97.94,98.55,99.32,97.28,98.7,99.11,98.39,98.82,99.1,98.9,99.3,99.3,99.07,97.51,100.69,97.74,98.21,98.26
2159.99,102.54,101.17,100.46,102.54,101.17,100.46,102.54,101.17,100.46,97.97,98.62,99.35,97.29,98.76,99.27,98.28,98.82,99.07,100.22,100.71,100.71,99.49,97.98,101.73,98.04,98.97,98.38
2146.95,102.33,100.84,100.62,102.33,100.84,100.62,102.33,100.84,100.62,97.95,98.27,99.41,97.07,98.91,98.87,98.4,98.86,99.01,98.91,99.55,99.55,98.39,97.21,100.91,97.44,98.11,97.88
2133.9,102.4,101.12,100.93,102.4,101.12,100.93,102.4,101.12,100.93,97.53,97.92,99.14,96.94,98.67,98.87,98.46,98.72,98.66,98.9,99.36,99.36,98.36,97.38,100.79,97.35,97.98,97.55
2120.86,102.03,100.79,100.36,102.03,100.79,100.36,102.03,100.79,100.36,97.03,97.5,98.97,96.35,98.39,98.64,97.91,98.26,98.21,98.33,98.74,98.74,97.9,96.7,100.14,96.75,97.48,97.24
2107.81,102.17,100.56,100.57,102.17,100.56,100.57,102.17,100.56,100.57,96.93,97.46,98.76,96.26,98.36,98.56,97.95,98.27,98.08,98.42,98.69,98.69,97.93,96.59,100.19,96.62,97.36,97.08
2094.76,101.99,100.66,100.45,101.99,100.66,100.45,101.99,100.66,100.45,96.91,97.36,98.92,96.37,98.36,98.69,98,98.58,98.38,98.59,98.88,98.88,97.98,96.74,100.31,96.75,97.52,97.32
2081.72,101.92,100.56,100.49,101.92,100.56,100.49,101.92,100.56,100.49,97.04,97.58,98.95,96.5,98.35,98.72,98.09,98.53,98.49,98.4,98.79,98.79,97.99,96.67,100.31,96.74,97.36,97.13
2068.67,102,100.65,100.53,102,100.65,100.53,102,100.65,100.53,97.34,97.77,99.09,96.48,98.46,98.88,98.06,98.67,98.56,98.69,98.93,98.93,98.35,96.91,100.41,96.96,97.7,97.61
2055.63,102.27,100.65,100.67,102.27,100.65,100.67,102.27,100.65,100.67,97.52,98.16,99.26,97.08,98.93,98.96,98.45,98.99,98.95,99.01,99.23,99.23,98.35,97.03,100.46,97.3,98.02,97.92
2042.58,102.42,101.08,100.92,102.42,101.08,100.92,102.42,101.08,100.92,98.03,98.64,99.74,97.65,98.72,99.03,98.8,99.3,99.52,99.2,99.63,99.63,99.12,97.7,100.8,98,98.39,98.24
2029.54,102.45,100.66,100.82,102.45,100.66,100.82,102.45,100.66,100.82,98.64,99.3,99.25,97.59,98.74,99.14,98.5,98.77,99.36,99.52,99.87,99.87,98.61,97.2,101.1,97.31,97.97,97.84
2016.49,102.55,100.99,100.83,102.55,100.99,100.83,102.55,100.99,100.83,98.26,98.74,99.77,97.99,99.01,99.26,98.85,99.12,99.26,99.54,99.86,99.86,98.61,97.63,100.79,97.7,98.29,98.08
2003.44,102,100.77,100.79,102,100.77,100.79,102,100.77,100.79,98.51,98.94,99.3,97.43,98.99,99.23,98.49,99.1,99.34,99.43,99.79,99.79,98.89,97.74,101.12,97.77,98.4,98.45
1990.4,102.39,100.92,100.85,102.39,100.92,100.85,102.39,100.92,100.85,98.23,98.39,99.24,97.32,98.6,99.07,98.47,98.75,98.76,99.21,99.47,99.47,98.74,97.57,100.74,97.65,98.23,98.28
1977.35,102.12,100.93,100.64,102.12,100.93,100.64,102.12,100.93,100.64,97.98,98.59,99.37,97.4,98.94,99.26,98.75,99.28,99.09,99.49,99.93,99.93,98.96,97.91,101.1,97.75,98.59,98.33
1964.31,101.83,100.77,100.68,101.83,100.77,100.68,101.83,100.77,100.68,97.46,98.01,99.45,97.16,98.91,99.06,98.84,98.95,98.99,98.94,99.15,99.15,98.49,97.29,100.67,97.4,97.91,97.78
1951.26,101.71,100.56,100.46,101.71,100.56,100.46,101.71,100.56,100.46,97.49,97.86,99.1,96.78,98.66,98.96,98.24,98.65,98.76,98.5,98.44,98.44,98.38,97.11,100.12,97.06,97.92,97.63
1938.22,101.74,100.69,100.5,101.74,100.69,100.5,101.74,100.69,100.5,97.53,97.83,98.92,96.75,98.64,98.94,98.35,98.63,98.53,98.67,98.82,98.82,97.96,96.91,100.22,96.9,97.59,97.42
1925.17,101.39,100.45,100.4,101.39,100.45,100.4,101.39,100.45,100.4,97.37,97.96,99.14,96.92,98.61,98.88,98.35,98.78,98.76,98.67,98.71,98.71,98.47,97.33,100.18,97.43,97.9,97.73
1912.12,101.56,100.53,100.41,101.56,100.53,100.41,101.56,100.53,100.41,97.4,97.89,99.12,96.92,98.76,99.11,98.47,98.79,98.83,98.57,98.8,98.8,98.36,97.25,100.17,97.28,97.85,97.79
1899.08,101.44,100.49,100.36,101.44,100.49,100.36,101.44,100.49,100.36,97.56,98.16,99.27,97.05,98.76,98.98,98.42,98.88,98.78,98.79,99.03,99.03,98.34,97.3,100.37,97.25,97.82,97.87
1886.03,101.52,100.56,100.36,101.52,100.56,100.36,101.52,100.56,100.36,97.53,98.05,99.25,97.15,98.78,98.96,98.48,98.83,98.81,98.7,98.93,98.93,98.5,97.51,100.19,97.36,98.07,97.95
1872.99,101.41,100.41,100.41,101.41,100.41,100.41,101.41,100.41,100.41,97.5,98.09,99.34,97.24,98.8,99.15,98.6,98.89,99.02,98.6,98.85,98.85,98.48,97.55,100.14,97.48,98.08,97.99
1859.94,101.41,100.43,100.42,101.41,100.43,100.42,101.41,100.43,100.42,97.53,98.07,99.25,97.15,98.73,98.96,98.51,98.79,98.82,98.71,98.94,98.94,98.43,97.43,100.17,97.35,98,97.91
1846.9,101.01,100.18,100.18,101.01,100.18,100.18,101.01,100.18,100.18,97.23,97.86,99.1,97,98.64,98.83,98.41,98.66,98.67,98.27,98.52,98.52,98.32,97.37,99.73,97.24,97.83,97.64
1833.85,101.01,100.24,100.09,101.01,100.24,100.09,101.01,100.24,100.09,97.18,97.64,98.92,96.87,98.58,98.73,98.26,98.5,98.44,98.4,98.56,98.56,98.17,97.22,99.81,97.02,97.64,97.33
1820.8,100.88,100.2,99.96,100.88,100.2,99.96,100.88,100.2,99.96,97.13,97.48,98.78,96.72,98.44,98.63,98.24,98.34,98.31,98.34,98.51,98.51,98.04,97.08,99.77,96.86,97.57,97.21
1807.76,100.78,100.16,99.94,100.78,100.16,99.94,100.78,100.16,99.94,97.16,97.51,98.81,96.79,98.46,98.64,98.21,98.31,98.27,98.37,98.57,98.57,98.1,97.17,99.81,96.96,97.53,97.25
1794.71,100.43,99.93,99.84,100.43,99.93,99.84,100.43,99.93,99.84,96.99,97.47,98.73,96.88,98.49,98.57,98.2,98.25,98.19,98.14,98.31,98.31,98.14,97.25,99.5,97.07,97.64,97.21
1781.67,100.36,99.94,99.79,100.36,99.94,99.79,100.36,99.94,99.79,97.26,97.56,98.7,96.92,98.45,98.57,98.22,98.24,98.16,98.33,98.52,98.52,98.22,97.38,99.67,97.16,97.72,97.29
1768.62,99.98,99.88,99.57,99.98,99.88,99.57,99.98,99.88,99.57,97.24,97.36,98.59,96.92,98.41,98.55,98.26,98.1,98.02,98.33,98.5,98.5,98.17,97.33,99.66,97.09,97.67,97.17
1755.58,98.44,99.22,98.85,98.44,99.22,98.85,98.44,99.22,98.85,96.77,96.81,98.02,96.28,98.02,97.98,97.68,97.17,97.29,98.23,98.38,98.38,97.79,96.86,99.8,96.62,97.12,96.26
1742.53,92.34,96.26,96.13,92.34,96.26,96.13,92.34,96.26,96.13,90.92,90.74,93.9,89.91,94.44,93.56,93.28,90.95,92.04,94.92,94.57,94.57,93.92,91.61,97.14,90.56,91.59,88.86
1729.48,79.83,89.59,87.88,79.83,89.59,87.88,79.83,89.59,87.88,77.73,77.7,85.63,75.88,86.83,85.63,84.88,80.6,80.55,86.81,84.86,84.86,84.07,79.42,90.11,77,79.38,73.36
1716.44,64.02,80.87,77.84,64.02,80.87,77.84,64.02,80.87,77.84,65.92,66.59,78.83,63.47,80.41,78.03,76.88,71.83,71.24,79,75.36,75.36,75.58,67.99,82.9,64.82,68.35,59.78
1703.39,75.56,86.15,79.07,75.56,86.15,79.07,75.56,86.15,79.07,67.12,68.31,80.52,65.44,81.28,81.26,79.08,76.11,70.5,78.96,76.5,76.5,75.51,69.45,83.67,67.36,71.19,63.54
1690.35,87.37,92.21,90.32,87.37,92.21,90.32,87.37,92.21,90.32,77.13,77.93,85.91,75.5,86.58,86.63,84.69,82.74,79.61,84.85,83.5,83.5,83.46,78.49,89.4,77.26,80.13,74.75
1677.3,90.89,93.91,93.33,90.89,93.91,93.33,90.89,93.91,93.33,81.44,82.3,88.72,80.2,89.2,89.24,87.36,86.11,83.61,86.89,86.31,86.31,86.71,82.37,92.01,81.68,84.06,79.86
1664.26,93.84,95.41,95.57,93.84,95.41,95.57,93.84,95.41,95.57,85.67,86.46,91.45,84.57,91.63,91.87,90.09,89.57,87.64,89.1,89.24,89.24,89.88,86.17,94.95,85.93,87.9,84.86
1651.21,95.93,96.71,97.27,95.93,96.71,97.27,95.93,96.71,97.27,90,90.49,94.33,88.95,94.14,94.42,93.11,92.9,92.25,90.82,92.09,92.09,93.07,90.18,97.81,89.9,91.46,89.67
1638.16,95.99,96.48,97.21,95.99,96.48,97.21,95.99,96.48,97.21,89.44,90.47,94.26,88.83,94.17,94.17,92.58,92.75,91.35,90.85,91.75,91.75,92.91,89.66,97.47,90,91.44,89.4
1625.12,96.98,97.14,97.93,96.98,97.14,97.93,96.98,97.14,97.93,91.11,91.98,95.41,90.45,95.15,95.19,93.86,94.11,93.25,92.14,93.16,93.16,94.06,91.21,98.43,91.39,92.81,91.27
1612.07,97.18,97.41,97.93,97.18,97.41,97.93,97.18,97.41,97.93,91.6,92.33,95.48,90.82,95.27,95.48,94.31,94.28,93.59,92.59,93.57,93.57,94.21,91.57,98.51,91.68,93.06,91.63
1599.03,98.06,97.86,98.58,98.06,97.86,98.58,98.06,97.86,98.58,92.94,93.74,96.57,92.28,96.19,96.45,95.25,95.65,94.95,93.49,94.49,94.49,95.2,92.81,99.32,93.1,94.33,93.32
1585.98,97.53,97.47,98.5,97.53,97.47,98.5,97.53,97.47,98.5,93.24,93.97,96.68,92.56,96.3,96.29,95.31,95.46,95.32,93.71,94.72,94.72,95.52,93.05,99.49,93.28,94.45,93.48
1572.94,97.64,97.63,97.99,97.64,97.63,97.99,97.64,97.63,97.99,92.57,93.26,96.21,91.93,95.9,96.15,95.16,95.27,94.54,93.29,94.22,94.22,94.94,92.64,98.94,92.72,93.97,92.78
1559.89,97.72,97.56,98.55,97.72,97.56,98.55,97.72,97.56,98.55,92,93.06,96.8,92.31,96.21,96.03,94.7,95.53,94.45,93.13,93.19,93.19,95.19,92.52,97.63,93.12,93.95,92.89
1546.85,98.77,98.26,99.02,98.77,98.26,99.02,98.77,98.26,99.02,94.25,95.06,97.64,94.04,97.13,97.26,96.36,96.73,96.4,94.24,95.61,95.61,96.49,94.52,100.13,94.72,95.64,95.03
1533.8,98.84,98.43,99.15,98.84,98.43,99.15,98.84,98.43,99.15,94.37,95.04,97.8,94.28,97.31,97.42,96.57,96.89,96.61,94.23,95.4,95.4,96.51,94.66,99.67,94.75,95.61,95.03
1520.75,98.69,98.47,99.14,98.69,98.47,99.14,98.69,98.47,99.14,94.45,95.1,97.84,94.42,97.3,97.38,96.49,96.86,96.63,94.26,95.2,95.2,96.6,94.89,98.98,94.79,95.59,94.97
1507.71,96.05,96.95,98,96.05,96.95,98,96.05,96.95,98,91.47,92.18,95.99,91.69,95.74,94.79,94.08,93.5,94.24,92.61,92.88,92.88,94.96,92.38,96.43,91.99,92.85,91.38
1494.66,99.59,99.24,99.4,99.59,99.24,99.4,99.59,99.24,99.4,95.04,95.65,97.85,94.65,97.39,97.65,96.93,97.23,96.82,95.69,96.34,96.34,96.78,95.13,99.48,95.09,95.97,95.44
1481.62,98.8,98.73,99.11,98.8,98.73,99.11,98.8,98.73,99.11,94.25,94.82,97.08,93.83,96.88,96.83,96.14,95.91,96.02,95.72,96.05,96.05,96.35,94.4,99.35,94.29,95.23,94.36
1468.57,95.97,97.56,97.68,95.97,97.56,97.68,95.97,97.56,97.68,92.33,92.92,95.72,91.68,95.62,95.62,94.92,94.5,93.92,94.42,94.91,94.91,94.78,92.5,98.91,92.29,93.55,92.17
1455.53,92.87,95.91,96.05,92.87,95.91,96.05,92.87,95.91,96.05,92.18,92.37,95.5,91.42,95.46,95.42,94.68,93.91,93.86,94.12,94.26,94.26,94.77,92.47,98.43,92.13,93.18,91.57
1442.48,95.44,97.29,96.76,95.44,97.29,96.76,95.44,97.29,96.76,92.59,93.03,95.95,91.96,95.82,95.85,95.06,94.63,94.1,94.8,94.96,94.96,95.02,92.86,99.02,92.73,93.77,92.28
1429.43,97.81,98.45,98.44,97.81,98.45,98.44,97.81,98.45,98.44,94.47,94.93,97.3,94.1,97.01,97.16,96.46,96.43,95.94,95.62,96.07,96.07,96.32,94.64,99.46,94.62,95.46,94.58
1416.39,94.76,96.61,97.5,94.76,96.61,97.5,94.76,96.61,97.5,92.32,92.46,95.25,91.47,95.44,94.49,94.14,92.53,94.21,93.96,94.38,94.38,95.1,92.47,97.9,91.76,92.84,90.99
1403.34,93.07,95.99,94.4,93.07,95.99,94.4,93.07,95.99,94.4,86.41,86.89,91.7,85.36,92.08,92.18,91.01,89.89,87.7,90.4,90,90,90.24,87.14,94.74,86.63,88.19,85.15
1390.3,95.36,97.07,96.79,95.36,97.07,96.79,95.36,97.07,96.79,91.97,92.45,95.51,91.31,95.41,95.23,94.52,94.01,93.53,93.88,94.19,94.19,94.5,92.18,98.05,91.89,93.07,91.47
1377.25,94.34,96.62,96.55,94.34,96.62,96.55,94.34,96.62,96.55,92.17,92.58,95.49,91.55,95.54,95.32,94.63,93.88,93.69,94.17,94.45,94.45,94.69,92.49,98.19,92.21,93.24,91.58
1364.21,96.35,97.71,97.23,96.35,97.71,97.23,96.35,97.71,97.23,92.66,93.09,95.98,92.25,95.91,95.85,95.14,94.74,93.99,94.51,94.74,94.74,95.04,93.12,98.26,92.93,93.88,92.39
1351.16,97.41,98.22,98.37,97.41,98.22,98.37,97.41,98.22,98.37,93.16,93.39,95.75,92.42,95.95,95.2,94.83,93.66,94.55,94.93,95.2,95.2,95.52,93.25,98.44,92.8,93.77,92.17
1338.11,96.38,97.72,97.5,96.38,97.72,97.5,96.38,97.72,97.5,82.1,82.78,89.06,80.92,89.54,88.96,87.91,85.78,83.92,87.72,86.98,86.98,86.94,82.91,91.59,81.78,83.86,80.05
1325.07,96.57,97.8,97.85,96.57,97.8,97.85,96.57,97.8,97.85,93.49,93.78,96.16,92.88,96.21,96.07,95.54,94.86,94.51,95.24,95.52,95.52,95.55,93.71,98.73,93.45,94.34,92.98
1312.02,94.34,96.62,96.42,94.34,96.62,96.42,94.34,96.62,96.42,92.15,92.23,94.98,91.35,95.31,94.87,94.42,93.06,93.14,94.38,94.45,94.45,94.64,92.51,97.86,92,92.95,90.94
1298.98,90.07,94.24,93.96,90.07,94.24,93.96,90.07,94.24,93.96,88.48,88.53,92.48,87.38,93.17,92.34,91.82,89.6,89.83,92.25,91.77,91.77,92.05,89.15,95.7,88.15,89.45,86.38
1285.93,83.08,90.32,89.27,83.08,90.32,89.27,83.08,90.32,89.27,81.72,81.94,88.14,80.19,89.25,87.94,87.18,83.99,83.92,88.08,86.63,86.63,87.1,82.84,91.71,81.23,83.13,78.45
1272.89,74.92,85.53,84.07,74.92,85.53,84.07,74.92,85.53,84.07,75.04,75.85,84.27,73.31,85.54,83.73,82.71,78.93,78.67,83.69,81.63,81.63,82.14,76.42,87.87,74.3,76.96,71.1
1259.84,65.66,80.11,77.7,65.66,80.11,77.7,65.66,80.11,77.7,68.29,69.43,80.41,66.35,81.92,79.95,78.61,74.07,73.2,79.54,76.72,76.72,77.27,70.32,84.55,67.69,70.99,63.75
1246.79,60.64,76.65,74.45,60.64,76.65,74.45,60.64,76.65,74.45,64.06,65.61,78.31,62,79.74,77.67,76.11,71.36,70.18,76.51,73.24,73.24,74.23,66.36,81.88,63.34,67.14,59.36
1233.75,58.51,74.35,70.93,58.51,74.35,70.93,58.51,74.35,70.93,62.85,64.58,78.02,60.89,79.22,77.59,75.73,71.45,69.16,75.48,72.1,72.1,73.07,65.32,81.2,62.58,66.3,58.6
1220.7,73.95,83.57,81.03,73.95,83.57,81.03,73.95,83.57,81.03,67.71,69.16,80.79,65.92,81.76,80.55,78.76,75.31,72.95,78.32,75.69,75.69,76.48,69.75,83.58,67.52,70.82,64.19
1207.66,84.08,89.81,88.94,84.08,89.81,88.94,84.08,89.81,88.94,74.55,75.74,84.89,73.01,85.51,84.92,83.1,80.65,78.8,82.75,80.9,80.9,81.64,76.1,87.35,74.5,77.14,72.16
1194.61,89.72,93.49,93.08,89.72,93.49,93.08,89.72,93.49,93.08,80.89,81.88,88.84,79.69,89.17,88.98,87.23,85.81,84.47,87.23,85.82,85.82,86.49,81.98,91.32,80.99,82.95,79.6
1181.57,91.55,94.94,94.89,91.55,94.94,94.89,91.55,94.94,94.89,84.92,85.71,91.24,83.86,91.46,91.15,89.72,88.56,88.03,90.16,88.99,88.99,89.59,85.6,93.93,84.9,86.53,83.93
1168.52,92.21,95.63,94.91,92.21,95.63,94.91,92.21,95.63,94.91,87.02,87.76,92.59,86.16,92.69,92.62,91.37,90.56,89.61,91.77,90.72,90.72,91.07,87.65,95.6,87.22,88.67,86.43
1155.47,93.19,96.14,95.99,93.19,96.14,95.99,93.19,96.14,95.99,89.27,89.79,93.71,88.5,93.92,93.56,92.73,91.58,91.57,93.39,92.6,92.6,92.72,89.72,97.09,89.26,90.52,88.5
1142.43,89.2,93.87,93.59,89.2,93.87,93.59,89.2,93.87,93.59,85.71,85.98,90.79,84.52,91.62,90.47,89.91,87.47,88.02,91.06,89.79,89.79,90.15,86.42,94.7,85.32,86.92,83.55
1129.38,82.2,89.63,89.21,82.2,89.63,89.21,82.2,89.63,89.21,74.48,75.61,83.88,72.8,85.22,83.05,82.27,78.51,78.72,83.14,80.99,80.99,81.76,75.63,87.68,73.49,76.33,70.69
1116.34,71.94,83.41,81.79,71.94,83.41,81.79,71.94,83.41,81.79,69.29,70.57,81,67.44,82.47,80.67,79.4,75.2,74.13,79.85,76.98,76.98,77.88,71.09,84.9,68.72,71.82,65.23
1103.292,66.73,80.05,79.24,66.73,80.05,79.24,66.73,80.05,79.24,66.63,68.06,79.37,64.69,81.07,78.96,77.61,72.77,72.28,78.35,75,75,76.23,68.74,83.11,65.98,69.27,62.16
1090.25,58.55,74.2,72.09,58.55,74.2,72.09,58.55,74.2,72.09,63.31,65.09,77.86,61.41,79.4,77.58,75.89,71.17,69.74,76.07,72.24,72.24,73.73,65.76,81.19,63.01,66.48,59.03
1077.2,66.22,78.17,75.58,66.22,78.17,75.58,66.22,78.17,75.58,65.55,67.31,79.42,63.79,80.61,79.31,77.47,73.52,71.52,77.19,73.8,73.8,75.26,67.85,82.4,65.57,68.8,62.03
1064.15,78.64,85.91,84.98,78.64,85.91,84.98,78.64,85.91,84.98,71.73,73.17,83.14,70.18,83.99,83.26,81.36,78.33,76.76,81.11,78.5,78.5,79.84,73.55,85.84,71.85,74.57,69.19
1051.11,81.64,87.97,88.06,81.64,87.97,88.06,81.64,87.97,88.06,75.44,76.56,85.15,73.95,86,85.22,83.46,80.58,79.88,83.57,81.29,81.29,82.76,76.97,87.96,75.45,77.75,73.09
1038.06,81.91,88.22,87.69,81.91,88.22,87.69,81.91,88.22,87.69,76.49,77.54,85.79,75.1,86.62,86.04,84.25,81.72,80.64,84.21,82.02,82.02,83.42,78.04,88.74,76.69,78.81,74.3
1025.02,83.13,89.32,89.77,83.13,89.32,89.77,83.13,89.32,89.77,76.47,77.47,85.36,74.81,86.34,84.3,83.23,79.88,80.91,84.28,82.1,82.1,83.74,77.49,88.16,75.71,78.21,73.28
1011.97,75.46,83.57,81.59,75.46,83.57,81.59,75.46,83.57,81.59,69.85,71.41,82.11,68.26,82.98,82.33,80.3,77.27,75.06,80,76.95,76.95,78.3,71.82,84.68,70.06,72.88,67.16
998.927,86.54,90.62,90.69,86.54,90.62,90.69,86.54,90.62,90.69,77.07,78.36,86.48,75.73,87.04,86.65,84.63,82.48,81.67,84.81,82.41,82.41,83.93,78.44,88.49,77.23,79.34,75.4
985.881,87.88,91.71,91.95,87.88,91.71,91.95,87.88,91.71,91.95,79.11,80.29,87.66,77.87,88.19,87.76,85.85,83.82,83.39,86.23,83.97,83.97,85.52,80.33,89.49,79.22,81.11,77.62
972.835,86.69,91.13,91.18,86.69,91.13,91.18,86.69,91.13,91.18,77.21,78.42,86.19,75.79,86.99,86.03,84.34,81.84,81.58,84.9,82.47,82.47,83.95,78.35,88.08,76.94,79.08,75
959.789,86.06,90.78,90.71,86.06,90.78,90.71,86.06,90.78,90.71,78.76,80.06,87.62,77.52,88.04,87.71,85.72,83.86,83.14,86.03,83.78,83.78,85.18,79.94,89.21,78.81,80.81,77.4
946.744,88.13,91.92,91.75,88.13,91.92,91.75,88.13,91.92,91.75,81.3,82.5,89.34,80.21,89.56,89.39,87.41,85.99,85.59,87.76,85.68,85.68,87.13,82.32,90.64,81.4,83.12,80.41
933.698,91.07,93.69,93.88,91.07,93.69,93.88,91.07,93.69,93.88,82.76,83.94,90.26,81.71,90.37,90.27,88.36,87.18,86.88,88.69,86.81,86.81,88.16,83.67,91.55,82.84,84.41,82.09
920.652,92.59,94.74,94.87,92.59,94.74,94.87,92.59,94.74,94.87,84,85.16,91.1,83.04,91.16,91.08,89.23,88.29,88.07,89.48,87.78,87.78,89.1,84.85,92.22,84.12,85.6,83.56
907.607,92.22,94.71,94.89,92.22,94.71,94.89,92.22,94.71,94.89,84.26,85.31,91.07,83.3,91.23,91,89.38,88.12,88.16,89.62,87.94,87.94,89.3,85.12,92.17,84.28,85.74,83.54
894.561,90.62,93.85,93.71,90.62,93.85,93.71,90.62,93.85,93.71,83.53,84.5,90.54,82.57,90.8,90.54,88.96,87.56,87.28,89.19,87.41,87.41,88.66,84.57,91.79,83.63,85.14,82.59
881.515,88.23,92.36,92.56,88.23,92.36,92.56,88.23,92.36,92.56,82.92,83.61,89.76,81.8,90.28,89.65,88.26,85.86,86.51,88.87,86.87,86.87,88.39,84.04,91.33,82.74,84.26,81.22
868.47,84.94,90.1,89.44,84.94,90.1,89.44,84.94,90.1,89.44,75.32,76.66,85.02,73.98,85.9,85.34,83.63,80.89,79.71,83.64,81.08,81.08,82.54,77,86.91,75.24,77.56,73.21
855.424,89.97,93.12,93.24,89.97,93.12,93.24,89.97,93.12,93.24,79.94,80.99,88.05,78.78,88.6,88.04,86.48,84.27,84.25,86.63,84.61,84.61,86.08,81.14,89.77,79.8,81.7,78.35
842.378,90.18,93.31,93.32,90.18,93.31,93.32,90.18,93.31,93.32,78.87,80.08,87.41,77.67,88.01,87.54,85.9,83.8,83.4,85.89,83.86,83.86,85.26,80.25,89.24,78.78,80.86,77.44
829.333,91.63,94.25,94.33,91.63,94.25,94.33,91.63,94.25,94.33,81.87,83.11,89.66,80.88,89.91,89.74,88.05,86.62,86.34,87.84,86.17,86.17,87.54,83.13,91.12,82,83.75,81.12
816.287,91.8,94.5,94.4,91.8,94.5,94.4,91.8,94.5,94.4,83.63,84.75,90.75,82.71,90.96,90.86,89.24,88.03,87.92,89.13,87.67,87.67,88.89,84.72,92.36,83.75,85.39,83.15
803.241,92.01,94.7,94.51,92.01,94.7,94.51,92.01,94.7,94.51,84.43,85.6,91.37,83.67,91.51,91.34,89.81,88.77,88.66,89.65,88.32,88.32,89.44,85.47,92.96,84.68,86.14,84.12
790.196,91.52,94.26,93.96,91.52,94.26,93.96,91.52,94.26,93.96,82.91,84,90.29,81.91,90.5,90.29,88.72,87.19,87,88.46,86.99,86.99,88.22,83.94,91.76,82.93,84.65,82.04
777.15,95.25,96.45,96.64,95.25,96.45,96.64,95.25,96.45,96.64,86.39,87.43,92.73,85.72,92.71,92.76,91.26,90.51,90.32,90.76,89.62,89.62,90.93,87.27,93.92,86.55,87.98,86.39
764.104,96.99,97.73,97.92,96.99,97.73,97.92,96.99,97.73,97.92,89.26,90.25,94.51,88.71,94.33,94.53,93.2,92.76,92.82,92.6,91.7,91.7,92.88,89.95,95.68,89.47,90.64,89.5
751.059,97.44,97.97,98.26,97.44,97.97,98.26,97.44,97.97,98.26,91.9,92.57,96.02,91.55,95.8,95.92,95.01,94.59,94.63,94.57,93.92,93.92,94.7,92.5,97.5,92.01,92.82,92.07
738.013,87.15,91.56,92.48,87.15,91.56,92.48,87.15,91.56,92.48,86.51,86.61,91.25,85.64,92.11,91.15,90.57,87.42,89.07,90.95,89.75,89.75,91.02,87.57,93.78,86.02,87.4,84.26
724.967,50.95,66.16,66.12,50.95,66.16,66.12,50.95,66.16,66.12,60.78,63.17,76.24,59.07,78.02,76.48,74.61,68.8,69.45,74.05,69.42,69.42,72.36,63.89,79.25,60.42,63.78,56.6
711.922,76.75,83.67,84.03,76.75,83.67,84.03,76.75,83.67,84.03,63.76,65.87,78.19,62.18,79.54,78.56,76.6,72.01,71.34,75.3,71.66,71.66,74.18,66.15,80.55,63.55,66.8,60.81
698.876,85,88.71,89.71,85,88.71,89.71,85,88.71,89.71,70.3,72.2,82.23,68.86,82.88,82.79,80.52,77.08,76.73,79.48,76.7,76.7,79.18,72.48,84.52,70.38,73,68.29
685.83,89.11,91.48,92.54,89.11,91.48,92.54,89.11,91.48,92.54,75.38,77.01,85.55,74.22,85.96,86.18,83.81,81.35,81.5,82.78,80.73,80.73,82.78,76.76,87.12,75.21,77.79,73.94
672.784,90.54,92.48,93.6,90.54,92.48,93.6,90.54,92.48,93.6,77.19,79.25,87.2,76.35,87.22,87.83,85.07,83.58,83.41,84.09,82.14,82.14,84.31,78.86,88.43,77.38,79.64,76.41
659.739,91.94,93.28,94.69,91.94,93.28,94.69,91.94,93.28,94.69,79.25,81.43,88.61,78.63,88.51,88.4,86.31,85.57,85.2,85.19,83.09,83.09,86.21,80.72,89.56,79.86,81.77,79.24
650.42,92.41,93.43,94.55,92.41,93.43,94.55,92.41,93.43,94.55,80.23,81.78,89.23,79.46,88.99,89.73,87.27,86.79,86.81,86.38,84.72,84.72,86.85,81.84,90.61,81.06,83.16,80.65