File: 5_RW_thesis/Degradation_FTIR/DT_LC_edit.csv
Wavenumber (cm^-1),DT13_1,DT13_2,DT13_3,DT14_1,DT14_2,DT14_3,DT15_1,DT15_2,DT15_3,DT16_1,DT16_2,DT16_3,DT17_1,DT17_2,DT17_3,DT18_1,DT18_2,DT18_3,DT19_1,DT19_2,DT19_3,DT20_1,DT20_2,DT20_3,DT21_1,DT21_2,DT21_3,DT22_1,DT22_2,DT22_3,DT23_1,DT23_2,DT23_3,DT24_1,DT24_2,DT24_3
3999.43,104.32,102.26,101.26,104.32,102.26,101.26,104.32,102.26,101.26,101.09,99.79,100.02,104.37,104.27,104.68,99.4,98.5,105.17,100.04,100.65,101,101.87,102.01,101.69,102.65,102.72,102.94,98.72,98.83,103.59,99.28,99.49,99.2,99.76,100.09,99.87
3982.66,104.17,102.2,101.13,104.17,102.2,101.13,104.17,102.2,101.13,101.23,99.84,100.14,104.34,104.23,104.68,99.46,98.38,105.18,99.96,100.63,100.86,101.84,101.96,101.75,102.6,102.73,102.89,98.85,98.81,103.48,99.36,99.53,99.33,99.87,100.12,99.93
3965.89,104.27,102.13,101.21,104.27,102.13,101.21,104.27,102.13,101.21,101.21,99.96,100.28,104.37,104.31,104.64,99.4,98.45,105.05,100.01,100.59,100.92,101.83,102,101.77,102.6,102.71,102.92,98.77,98.91,103.55,99.37,99.55,99.33,99.86,100.1,99.93
3949.11,104.3,102.13,101.28,104.3,102.13,101.28,104.3,102.13,101.28,101,99.68,100.18,104,103.88,104.26,99.46,98.49,104.72,99.92,100.54,100.88,101.59,101.76,101.58,102.45,102.53,102.62,98.92,98.89,103.22,99.31,99.62,99.34,99.78,100.11,99.85
3932.34,103.94,102.01,101.19,103.94,102.01,101.19,103.94,102.01,101.19,100.85,99.72,100.01,103.97,103.83,104.18,99.4,98.37,104.67,99.8,100.49,100.81,101.55,101.76,101.5,102.33,102.34,102.55,98.8,98.77,103.16,99.27,99.41,99.32,99.75,99.91,99.77
3915.57,104.18,102.07,101.27,104.18,102.07,101.27,104.18,102.07,101.27,100.93,99.73,100.07,104.08,103.9,104.23,99.51,98.47,104.84,99.96,100.57,100.95,101.71,101.93,101.72,102.44,102.65,102.82,98.86,98.86,103.4,99.36,99.54,99.39,99.82,100.1,99.95
3898.8,103.94,102.09,101.17,103.94,102.09,101.17,103.94,102.09,101.17,100.72,99.76,100.04,103.72,103.55,103.9,99.67,98.61,104.4,100.08,100.64,100.98,101.67,101.79,101.62,102.53,102.46,102.58,98.9,98.93,103.18,99.45,99.66,99.43,99.76,99.91,99.98
3882.02,104.09,102.25,101.26,104.09,102.25,101.26,104.09,102.25,101.26,100.97,99.7,100.15,103.79,103.6,103.83,99.47,98.43,104.32,99.8,100.3,100.72,101.35,101.48,101.39,102.09,102.05,102.29,98.9,98.92,102.83,99.43,99.52,99.27,99.68,99.93,99.83
3865.25,103.77,101.94,101.15,103.77,101.94,101.15,103.77,101.94,101.15,100.86,99.78,100.15,103.66,103.44,103.83,99.56,98.45,104.31,99.82,100.46,100.79,101.38,101.48,101.47,102.1,102.07,102.28,98.78,98.84,102.84,99.32,99.51,99.23,99.48,99.82,99.7
3848.48,103.95,102,101.14,103.95,102,101.14,103.95,102,101.14,100.9,99.85,100.11,103.97,103.61,104.06,99.57,98.66,104.59,100,100.72,100.97,101.71,101.88,101.66,102.41,102.41,102.56,98.87,98.91,103.14,99.32,99.61,99.36,99.72,100,99.92
3831.7,103.84,101.94,101.12,103.84,101.94,101.12,103.84,101.94,101.12,100.69,99.77,100.05,103.75,103.45,103.92,99.57,98.61,104.4,100,100.57,100.94,101.63,101.85,101.63,102.4,102.43,102.62,99.01,99.01,103.19,99.44,99.57,99.41,99.84,100.04,100.01
3814.93,103.89,102.12,101.18,103.89,102.12,101.18,103.89,102.12,101.18,100.84,99.84,100.13,103.97,103.74,104.09,99.55,98.64,104.61,100.04,100.71,100.97,101.59,101.9,101.61,102.46,102.54,102.54,99.05,99.06,103.13,99.54,99.72,99.49,99.77,100.08,99.94
3798.16,103.85,102.03,101,103.85,102.03,101,103.85,102.03,101,100.55,99.66,99.96,103.38,103.15,103.55,99.51,98.58,104.08,99.79,100.5,100.81,101.42,101.49,101.37,102.06,102.15,102.29,98.95,98.92,102.94,99.41,99.62,99.29,99.78,99.99,100
3781.38,104,101.86,101.05,104,101.86,101.05,104,101.86,101.05,101.04,99.74,100.13,103.93,103.69,103.97,99.45,98.47,104.46,99.79,100.46,100.66,101.42,101.74,101.53,102.1,102.27,102.33,98.8,98.71,103.01,99.31,99.36,99.25,99.64,99.88,99.76
3764.61,103.79,101.92,101.03,103.79,101.92,101.03,103.79,101.92,101.03,100.85,99.71,100.15,103.89,103.69,104.1,99.66,98.63,104.47,100,100.69,100.87,101.76,101.92,101.64,102.32,102.56,102.62,98.95,98.9,103.11,99.34,99.47,99.37,99.8,100.05,99.86
3747.84,103.3,101.43,100.84,103.3,101.43,100.84,103.3,101.43,100.84,101.1,99.95,100.32,104.17,103.87,104.07,99.37,98.69,104.69,99.63,100.43,100.47,101.09,101.2,101.09,101.39,101.46,101.86,98.84,98.76,102.13,99.31,99.07,99.05,99.21,99.55,99.37
3731.07,103.52,101.7,100.95,103.52,101.7,100.95,103.52,101.7,100.95,100.73,99.81,100.18,103.55,103.28,103.58,99.68,98.73,104.16,99.97,100.52,100.9,101.46,101.56,101.47,102.25,102.24,102.42,99.07,99.04,102.87,99.42,99.62,99.47,99.81,100.12,100.05
3714.29,103.93,101.81,101.03,103.93,101.81,101.03,103.93,101.81,101.03,101.05,99.78,100.22,103.83,103.56,103.83,99.28,98.59,104.31,99.72,100.36,100.54,101.35,101.62,101.34,101.89,101.96,102.2,98.72,98.54,102.73,99.11,99.15,98.97,99.29,99.63,99.49
3697.52,103.83,101.91,101,103.83,101.91,101,103.83,101.91,101,100.89,99.63,99.93,103.94,103.63,104.02,99.57,98.58,104.46,100.06,100.72,100.95,101.79,101.96,101.72,102.36,102.51,102.6,98.8,98.69,103.16,99.28,99.42,99.2,99.69,99.94,99.73
3680.75,103.65,101.7,100.91,103.65,101.7,100.91,103.65,101.7,100.91,100.94,99.65,99.89,103.4,103.26,103.54,99.38,98.58,103.84,99.66,100.45,100.56,101.47,101.86,101.45,102.01,102.22,102.45,98.71,98.76,102.87,99,99.2,99.18,99.48,99.87,99.59
3663.97,103.76,101.83,100.85,103.76,101.83,100.85,103.76,101.83,100.85,100.68,99.35,99.34,103.44,103.44,103.86,99.24,98.28,104.15,99.59,100.2,100.59,101.44,101.43,101.17,102.01,102.17,102.34,98.64,98.62,102.85,98.71,99.14,99.03,99.51,99.73,99.51
3647.2,103.58,101.88,101.08,103.58,101.88,101.08,103.58,101.88,101.08,100.3,99.19,98.41,102.32,102.49,102.67,99.3,98.06,103.07,99.34,99.83,100.29,100.93,100.61,100.74,101.37,101.62,101.74,98.73,98.76,102.18,98.56,99.18,99.11,99.44,99.67,99.52
3630.43,103.82,101.65,100.59,103.82,101.65,100.59,103.82,101.65,100.59,100.12,98.79,97.65,102.14,102.09,102.7,98.85,97.72,102.61,98.72,99.38,99.68,100.47,100.38,100.16,100.71,100.93,101.35,98.15,98.17,101.58,98.02,98.53,98.41,98.73,99.08,98.63
3613.65,103.48,101.48,100.64,103.48,101.48,100.64,103.48,101.48,100.64,100.5,98.86,97.57,102.39,102.49,103.03,98.84,97.69,102.98,98.71,99.4,99.99,100.63,100.5,100.4,100.88,101.19,101.46,98.17,98.08,101.63,97.89,98.57,98.54,98.8,99.13,98.71
3596.88,103.95,101.69,100.79,103.95,101.69,100.79,103.95,101.69,100.79,100.51,98.7,97.16,102.26,102.57,103.07,98.94,97.59,102.88,98.73,99.66,100.03,100.95,100.93,100.69,101.1,101.55,101.61,98.32,98.24,102.06,98,98.55,98.58,99.07,99.03,98.68
3580.11,103.91,101.74,100.55,103.91,101.74,100.55,103.91,101.74,100.55,100.28,98.4,96.87,102.24,102.45,103.13,98.7,97.35,102.96,98.65,99.7,100.13,100.83,100.95,100.68,101.11,101.5,101.78,98.11,98.07,101.98,97.78,98.46,98.48,98.71,99.05,98.63
3563.33,103.65,101.41,100.59,103.65,101.41,100.59,103.65,101.41,100.59,100.22,98.21,96.07,101.85,102.21,102.83,98.68,97.3,102.42,98.49,99.27,99.97,100.78,100.38,100.21,100.75,101.31,101.42,97.96,98.04,101.69,97.32,98.06,98.34,98.59,98.59,98.27
3546.56,103.98,101.81,100.42,103.98,101.81,100.42,103.98,101.81,100.42,100.01,97.86,95.48,101.39,101.8,102.5,98.58,96.97,101.9,98.02,99.2,99.82,100.71,100.36,100.19,100.48,101.03,101.36,97.65,97.66,101.36,96.97,97.87,97.9,98.17,98.37,97.75
3529.79,103.91,101.42,100.5,103.91,101.42,100.5,103.91,101.42,100.5,99.99,97.71,95,101.04,101.66,102.62,98.23,96.64,101.78,97.97,98.81,99.35,100.45,100.32,99.99,100.17,100.83,101.17,97.81,97.66,101.28,96.96,97.88,97.88,98.16,98.46,97.7
3513.02,103.7,101.27,100.26,103.7,101.27,100.26,103.7,101.27,100.26,100.12,97.51,94.55,101.24,101.72,102.69,98.34,96.82,101.85,98.05,99.2,99.7,100.96,100.76,100.31,100.5,101.07,101.43,97.59,97.52,101.49,96.8,97.7,97.83,98.1,98.27,97.65
3496.24,103.84,101.41,100.37,103.84,101.41,100.37,103.84,101.41,100.37,99.85,97.37,94.28,101,101.44,102.42,98.53,96.67,101.79,97.95,99.1,99.73,100.91,100.95,100.44,100.3,101.18,101.26,97.49,97.39,101.34,96.71,97.62,97.73,97.85,97.99,97.49
3479.47,103.93,101.2,100.42,103.93,101.2,100.42,103.93,101.2,100.42,99.94,97.25,93.89,100.57,101.21,102.16,98.26,96.52,101.45,97.69,98.96,99.57,100.71,100.52,100.15,100.14,100.89,101.13,97.43,97.38,101.07,96.47,97.36,97.55,97.54,97.84,97.28
3462.7,103.83,101.34,100.47,103.83,101.34,100.47,103.83,101.34,100.47,99.67,96.94,93.51,100.36,101.05,102.14,97.98,96.15,101.19,97.42,98.9,99.47,100.62,100.5,100.15,100.05,100.74,101.03,97.36,97.23,101.04,96.26,97.18,97.55,97.45,97.57,97.07
3445.92,103.51,101.26,100.23,103.51,101.26,100.23,103.51,101.26,100.23,99.65,96.68,92.91,99.8,100.68,101.66,97.6,95.8,100.73,96.97,98.3,98.96,100.22,99.75,99.51,99.38,100.44,100.53,96.96,96.84,100.54,95.69,96.79,97.17,97.01,97.1,96.7
3429.15,103.45,101,99.97,103.45,101,99.97,103.45,101,99.97,99.44,96.49,92.46,99.58,100.48,101.59,97.51,95.75,100.61,96.85,98.15,99,100.19,99.79,99.53,99.41,100.19,100.48,96.76,96.64,100.41,95.38,96.51,96.86,96.89,96.96,96.47
3412.38,103.51,100.79,99.9,103.51,100.79,99.9,103.51,100.79,99.9,99.27,96.29,92.27,99.27,100.46,101.42,97.42,95.64,100.54,96.63,98,98.87,99.97,99.83,99.42,99.23,100,100.43,96.67,96.63,100.32,95.21,96.46,96.78,96.68,96.79,96.19
3395.6,103.56,100.84,100.16,103.56,100.84,100.16,103.56,100.84,100.16,99.45,96.41,92.59,99.49,100.35,101.33,97.66,95.69,100.36,96.54,98.01,98.83,100.12,100.11,99.75,99.31,100.22,100.42,96.71,96.63,100.28,95.57,96.54,96.67,96.6,96.69,96.25
3378.83,103.45,100.95,100.22,103.45,100.95,100.22,103.45,100.95,100.22,99.31,96.28,92.6,99.49,100.31,101.34,97.6,95.54,100.35,96.83,98.08,98.94,100.1,100.11,99.65,99.33,100.17,100.19,96.8,96.65,100.31,95.53,96.59,96.76,96.53,96.59,96.22
3362.06,103.31,100.87,100.25,103.31,100.87,100.25,103.31,100.87,100.25,99.18,96.13,92.57,99.23,99.92,101.11,97.78,95.65,100.04,96.65,98.11,98.87,100.1,100.23,99.76,99.28,100.1,100.24,96.8,96.59,100.21,95.55,96.53,96.72,96.43,96.51,96.13
3345.29,103.37,100.76,100.19,103.37,100.76,100.19,103.37,100.76,100.19,99.22,96.12,92.63,99.13,99.87,101.09,97.59,95.58,100.04,96.59,98,98.69,99.99,100.04,99.68,99.18,100.03,100.1,96.66,96.58,100.12,95.43,96.45,96.66,96.21,96.28,95.95
3328.51,103.3,100.72,100.22,103.3,100.72,100.22,103.3,100.72,100.22,99.1,96.17,92.74,99.06,99.93,100.92,97.67,95.55,99.94,96.61,97.92,98.74,99.99,100.16,99.78,99.2,100.01,100.08,96.63,96.42,100.2,95.39,96.34,96.5,95.99,96.09,95.9
3311.74,103.15,100.63,100.17,103.15,100.63,100.17,103.15,100.63,100.17,99.03,96.09,92.8,99.05,99.8,100.95,97.6,95.5,99.96,96.58,97.91,98.7,99.81,99.96,99.61,99.04,99.85,99.78,96.54,96.33,99.94,95.38,96.35,96.32,95.9,95.89,95.61
3294.97,103.12,100.5,100,103.12,100.5,100,103.12,100.5,100,99,96.07,92.91,99.08,99.78,100.86,97.68,95.6,99.85,96.51,97.83,98.66,99.76,100.03,99.64,98.99,99.76,99.81,96.61,96.4,99.9,95.37,96.32,96.44,95.68,95.84,95.67
3278.19,102.99,100.66,100.29,102.99,100.66,100.29,102.99,100.66,100.29,98.93,96.09,93.05,99.05,99.81,100.75,97.66,95.56,99.87,96.59,97.8,98.63,99.69,100.05,99.73,99.08,99.72,99.78,96.65,96.47,99.79,95.5,96.37,96.41,95.77,96.02,95.76
3261.42,103.16,100.69,100.24,103.16,100.69,100.24,103.16,100.69,100.24,99.18,96.3,93.49,99.31,99.94,100.96,97.83,95.73,99.98,96.77,98.04,98.73,99.79,100.22,99.82,99.2,99.76,99.89,96.64,96.45,99.94,95.51,96.43,96.43,95.79,95.92,95.7
3244.65,103.03,100.68,100.21,103.03,100.68,100.21,103.03,100.68,100.21,99.21,96.4,93.63,99.36,100,100.95,97.74,95.78,100.08,96.76,98.14,98.79,99.73,100.07,99.83,99.22,99.86,99.79,96.71,96.44,99.97,95.77,96.49,96.52,96.01,96.12,95.91
3227.87,103.06,100.66,100.33,103.06,100.66,100.33,103.06,100.66,100.33,99.14,96.6,93.94,99.48,100.08,100.92,97.66,95.88,100.19,96.88,98.16,98.76,99.87,100.07,99.75,99.26,99.94,99.95,96.81,96.53,100.11,95.77,96.58,96.53,96.09,96.1,95.98
3211.1,102.93,100.66,100.24,102.93,100.66,100.24,102.93,100.66,100.24,99.22,96.61,94.25,99.6,100.09,101.02,97.97,96.07,100.35,97.11,98.26,98.92,99.91,100.18,99.95,99.43,100.03,100.03,96.85,96.55,100.19,95.85,96.61,96.66,96.19,96.33,96.14
3194.33,103.04,100.78,100.33,103.04,100.78,100.33,103.04,100.78,100.33,99.3,96.8,94.59,99.7,100.14,101.07,98.01,96.11,100.49,97.2,98.39,98.92,99.94,100.24,99.96,99.56,100.03,100.07,96.86,96.61,100.27,96.02,96.82,96.77,96.22,96.47,96.25
3177.56,102.88,100.77,100.32,102.88,100.77,100.32,102.88,100.77,100.32,99.24,96.89,94.92,99.82,100.39,101.16,98.05,96.2,100.54,97.17,98.35,99.01,99.94,100.28,99.92,99.61,100.13,100.13,97.04,96.73,100.43,96.24,96.94,96.85,96.5,96.63,96.5
3160.78,102.97,100.8,100.42,102.97,100.8,100.42,102.97,100.8,100.42,99.47,97.09,95.25,100.02,100.45,101.28,98.08,96.41,100.67,97.51,98.45,99.01,99.99,100.24,100.02,99.77,100.21,100.23,97.2,96.92,100.48,96.37,97.12,97.12,96.7,96.83,96.7
3144.01,102.94,100.93,100.45,102.94,100.93,100.45,102.94,100.93,100.45,99.5,97.16,95.51,100.03,100.46,101.17,98.09,96.42,100.67,97.46,98.46,99,99.95,100.15,99.95,99.83,100.23,100.22,97.14,96.99,100.55,96.48,97.26,97.21,96.83,96.99,96.84
3127.24,102.8,100.78,100.37,102.8,100.78,100.37,102.8,100.78,100.37,99.4,97.16,95.67,100.01,100.48,101.24,98.07,96.47,100.67,97.52,98.4,99.02,99.92,100.07,99.88,99.82,100.23,100.19,97.16,97.01,100.61,96.4,97.18,97.16,96.92,97.06,96.9
3110.46,102.83,100.85,100.34,102.83,100.85,100.34,102.83,100.85,100.34,99.58,97.36,95.88,100.07,100.53,101.22,97.98,96.48,100.71,97.4,98.33,98.83,99.86,99.84,99.7,99.7,100.12,100.14,97.2,97.09,100.5,96.38,97.2,97.19,96.96,97.13,97.01
3093.69,102.72,100.8,100.26,102.72,100.8,100.26,102.72,100.8,100.26,99.54,97.31,95.87,100.02,100.48,101.16,97.92,96.43,100.66,97.43,98.21,98.82,99.76,99.72,99.65,99.68,100.1,100.09,97.1,96.98,100.47,96.28,97.11,97.19,96.92,97.19,96.96
3076.92,102.61,100.76,100.22,102.61,100.76,100.22,102.61,100.76,100.22,99.46,97.27,95.66,99.68,100.31,101.07,97.84,96.35,100.48,97.23,97.98,98.64,99.6,99.45,99.39,99.41,99.97,100,97.02,96.88,100.29,96.05,96.97,97.09,96.94,97.12,96.95
3060.14,102.49,100.64,100.21,102.49,100.64,100.21,102.49,100.64,100.21,99.44,97.14,95.6,99.57,100.14,100.88,97.78,96.34,100.33,97.29,98,98.7,99.53,99.36,99.33,99.35,99.87,99.94,97.07,96.95,100.37,96.08,97,97.12,96.98,97.12,96.98
3043.37,102.59,100.86,100.38,102.59,100.86,100.38,102.59,100.86,100.38,99.6,97.49,96.35,100.14,100.52,101.26,98.18,96.64,100.67,97.58,98.39,98.94,99.84,99.98,99.8,99.9,100.23,100.12,97.32,97.2,100.62,96.6,97.35,97.39,97.16,97.38,97.18
3026.6,102.57,100.89,100.4,102.57,100.89,100.4,102.57,100.89,100.4,99.62,97.56,96.51,100.12,100.55,101.17,98.18,96.74,100.69,97.75,98.48,99.03,99.9,99.88,99.8,99.93,100.25,100.21,97.44,97.27,100.66,96.76,97.45,97.5,97.37,97.55,97.4
3009.83,102.15,100.6,100.09,102.15,100.6,100.09,102.15,100.6,100.09,99.39,97.28,95.97,99.4,100.06,100.78,97.69,96.41,100.01,97.44,98.04,98.62,99.66,99.4,99.22,99.54,99.95,99.99,97.15,97.08,100.42,96.24,97.18,97.36,97.32,97.54,97.37
2993.05,101.9,100.6,99.86,101.9,100.6,99.86,101.9,100.6,99.86,99.23,96.89,95.02,98.45,99.6,100.31,97.02,95.91,99.44,96.64,97.21,97.94,99.08,98.25,98.26,98.75,99.21,99.55,96.54,96.52,99.9,95.2,96.49,96.89,96.96,97.15,96.82
2976.28,100.77,99.95,99.27,100.77,99.95,99.27,100.77,99.95,99.27,98.59,95.65,92.64,96,98.1,98.83,95.4,94.54,97.57,95.03,95.29,96.43,97.72,95.98,96.14,96.94,97.77,98.51,95.29,95.51,98.56,92.94,94.99,95.96,96.18,96.29,95.89
2959.51,99.53,99.36,97.89,99.53,99.36,97.89,99.53,99.36,97.89,97.06,93.07,87.65,91.31,94.77,95.88,92.93,91.78,93.14,92.11,91.71,93.5,95.6,92.29,92.69,94.13,95.16,96.34,92.72,93.52,96.3,89.02,92.09,94.23,94.68,94.9,93.93
2942.73,98.26,98.77,97.07,98.26,98.77,97.07,98.26,98.77,97.07,96.41,91.75,85.14,88.52,93.15,94.27,91.14,90.13,90.95,90.17,89.57,91.72,94.15,89.74,90.34,92.19,93.45,94.95,91.12,92.14,94.85,86.32,90.31,92.95,93.77,93.97,92.78
2925.96,96.91,98.34,95.94,96.91,98.34,95.94,96.91,98.34,95.94,94.49,88.41,79.26,82.27,87.97,90.1,88.84,86.17,83.38,87.21,86.33,88.17,92.99,88.09,87.98,90.34,91,92.08,88.15,90.01,92.55,82.7,87.4,91.22,92.27,92.72,90.77
2909.19,100.11,100.08,98.55,100.11,100.08,98.55,100.11,100.08,98.55,96.06,91,84.88,87.94,91.51,93.17,92,88.88,88.24,90.21,89.81,91.15,94.54,91.5,91.55,92.87,93.37,93.85,90.58,91.96,94.72,87.02,90.33,92.75,93.49,93.64,92.25
2892.41,100.43,99.99,98.84,100.43,99.99,98.84,100.43,99.99,98.84,97,92.86,88.28,91.33,94.3,95.44,93.28,91.22,92.25,92.04,91.87,93.13,95.46,92.83,93.1,94.28,94.89,95.56,92.43,93.3,96.18,89.17,92.09,93.88,94.38,94.66,93.58
2875.64,100.39,99.84,98.99,100.39,99.84,98.99,100.39,99.84,98.99,97.6,94.1,90.64,93.54,95.86,96.87,94.45,92.86,94.45,93.62,93.64,94.69,96.69,94.67,94.93,95.86,96.27,96.78,93.94,94.39,97.38,91.2,93.61,94.92,95.26,95.49,94.73
2858.87,98.07,98.72,97.58,98.07,98.72,97.58,98.07,98.72,97.58,96.55,92.37,87.15,89.73,93.43,94.59,92.23,90.85,90.86,91.63,91.33,92.54,95.56,92.24,92.43,93.81,94.33,95.32,92.31,93,95.79,88.32,91.63,93.81,94.48,94.77,93.7
2842.1,102.02,100.88,100.17,102.02,100.88,100.17,102.02,100.88,100.17,97.84,94.3,91.48,94.29,95.72,96.88,95.61,92.74,94.13,94.12,94.27,94.94,97.05,95.93,95.94,96.59,96.73,96.58,93.93,94.55,97.67,92.08,93.98,94.99,95.4,95.53,94.76
2825.32,102.08,100.53,100.23,102.08,100.53,100.23,102.08,100.53,100.23,98.84,96.56,95.63,98.3,98.83,99.51,97.29,95.6,98.48,96.8,97.16,97.59,98.87,98.46,98.47,98.94,98.94,98.8,96.5,96.33,99.74,95.27,96.5,96.67,96.77,97.05,96.73
2808.55,102.17,100.57,100.32,102.17,100.57,100.32,102.17,100.57,100.32,99.2,97.03,96.54,99.29,99.56,100.1,97.72,96.31,99.44,97.31,97.77,98.16,99.19,98.98,99.02,99.37,99.45,99.28,97.04,96.83,100.13,96,97.02,97.09,97.12,97.44,97.17
2791.78,102.26,100.64,100.42,102.26,100.64,100.42,102.26,100.64,100.42,99.35,97.44,97.09,99.73,99.88,100.42,98.11,96.68,99.9,97.67,98.19,98.51,99.47,99.36,99.36,99.72,99.8,99.61,97.3,97.05,100.43,96.37,97.36,97.31,97.36,97.6,97.38
2775,102.36,100.72,100.47,102.36,100.72,100.47,102.36,100.72,100.47,99.46,97.6,97.41,100.1,100.14,100.66,98.21,96.85,100.27,97.85,98.36,98.63,99.57,99.51,99.54,99.9,99.95,99.68,97.56,97.3,100.54,96.74,97.59,97.52,97.6,97.79,97.64
2758.23,102.33,100.69,100.47,102.33,100.69,100.47,102.33,100.69,100.47,99.49,97.65,97.58,100.16,100.26,100.72,98.29,97.01,100.3,98,98.49,98.72,99.57,99.62,99.57,100,100.02,99.79,97.61,97.31,100.61,96.78,97.69,97.56,97.62,97.9,97.76
2741.46,102.32,100.73,100.49,102.32,100.73,100.49,102.32,100.73,100.49,99.57,97.85,97.78,100.34,100.34,100.84,98.38,97.08,100.5,98.11,98.63,98.84,99.69,99.76,99.73,100.07,100.13,99.89,97.73,97.47,100.71,97,97.8,97.73,97.78,98.01,97.86
2724.68,102.38,100.75,100.53,102.38,100.75,100.53,102.38,100.75,100.53,99.55,97.86,97.81,100.44,100.38,100.84,98.47,97.18,100.53,98.2,98.74,98.97,99.79,99.87,99.83,100.26,100.28,99.96,97.88,97.59,100.8,97.14,97.91,97.82,97.92,98.14,97.99
2707.91,102.43,100.73,100.57,102.43,100.73,100.57,102.43,100.73,100.57,99.61,98,98.02,100.65,100.55,101.01,98.58,97.27,100.66,98.33,98.87,99,99.89,100.02,99.94,100.35,100.36,100.09,97.91,97.63,100.91,97.27,98.03,97.88,97.97,98.15,98.05
2691.14,102.3,100.73,100.51,102.3,100.73,100.51,102.3,100.73,100.51,99.66,98.06,98.16,100.72,100.56,101.03,98.6,97.36,100.77,98.37,98.92,99.1,99.92,100.09,99.97,100.39,100.39,100.09,97.97,97.71,100.89,97.31,98.08,97.93,98.05,98.24,98.12
2674.36,102.33,100.72,100.53,102.33,100.72,100.53,102.33,100.72,100.53,99.65,98.03,98.13,100.64,100.54,100.97,98.59,97.33,100.67,98.38,98.88,99.09,99.9,100.02,99.94,100.33,100.39,100.09,97.98,97.73,100.87,97.38,98.12,97.96,98.13,98.28,98.16
2657.59,102.36,100.73,100.52,102.36,100.73,100.52,102.36,100.73,100.52,99.63,98.03,98.07,100.67,100.53,100.97,98.64,97.32,100.67,98.37,98.95,99.02,99.89,100.02,99.96,100.34,100.42,100.11,97.92,97.64,100.85,97.31,98.05,97.87,98.07,98.26,98.11
2640.82,102.32,100.75,100.54,102.32,100.75,100.54,102.32,100.75,100.54,99.64,98.11,98.2,100.78,100.63,101.03,98.66,97.4,100.8,98.48,99.02,99.12,99.97,100.15,100.03,100.42,100.51,100.25,97.99,97.75,100.97,97.48,98.15,97.99,98.13,98.29,98.17
2624.05,102.36,100.75,100.61,102.36,100.75,100.61,102.36,100.75,100.61,99.71,98.23,98.34,100.86,100.71,101.13,98.73,97.47,100.94,98.53,99.08,99.2,100.07,100.13,100.07,100.5,100.54,100.3,98.11,97.84,101.03,97.58,98.27,98.1,98.25,98.41,98.34
2607.27,102.42,100.8,100.57,102.42,100.8,100.57,102.42,100.8,100.57,99.93,98.39,98.65,101.16,100.93,101.27,98.84,97.66,101.16,98.73,99.23,99.36,100.16,100.34,100.16,100.68,100.64,100.38,98.24,98.02,101.1,97.78,98.41,98.26,98.43,98.52,98.5
2590.5,102.49,100.78,100.68,102.49,100.78,100.68,102.49,100.78,100.68,99.88,98.54,98.78,101.28,101.08,101.44,98.93,97.79,101.28,98.86,99.39,99.42,100.29,100.47,100.3,100.8,100.81,100.54,98.3,98.04,101.31,97.84,98.56,98.35,98.44,98.59,98.57
2573.73,102.36,100.77,100.59,102.36,100.77,100.59,102.36,100.77,100.59,99.97,98.64,98.85,101.38,101.05,101.61,98.98,97.8,101.4,98.86,99.41,99.51,100.39,100.4,100.39,100.81,100.87,100.59,98.41,98.05,101.25,97.89,98.54,98.4,98.58,98.69,98.68
2556.95,102.34,100.68,100.45,102.34,100.68,100.45,102.34,100.68,100.45,99.96,98.6,98.83,101.34,101.12,101.46,98.98,97.94,101.36,98.97,99.43,99.64,100.41,100.41,100.41,100.9,100.88,100.67,98.59,98.13,101.46,98,98.63,98.54,98.65,98.78,98.8
2540.18,102.32,100.66,100.56,102.32,100.66,100.56,102.32,100.66,100.56,99.94,98.66,98.83,101.33,101.12,101.61,98.98,97.93,101.43,98.99,99.57,99.63,100.37,100.44,100.48,100.94,100.87,100.76,98.5,98.21,101.37,97.95,98.61,98.47,98.6,98.7,98.68
2523.41,102.24,100.79,100.58,102.24,100.79,100.58,102.24,100.79,100.58,99.8,98.56,98.8,101.3,101.06,101.44,98.97,97.86,101.31,98.98,99.46,99.52,100.32,100.35,100.28,100.76,100.86,100.58,98.61,98.24,101.25,97.96,98.61,98.51,98.68,98.82,98.8
2506.63,102.28,100.73,100.44,102.28,100.73,100.44,102.28,100.73,100.44,100.03,98.66,98.98,101.45,101.12,101.45,98.98,97.99,101.33,99.08,99.53,99.66,100.33,100.56,100.41,100.87,100.98,100.61,98.66,98.26,101.34,98.06,98.74,98.55,98.69,98.87,98.83
2489.86,102.31,100.78,100.6,102.31,100.78,100.6,102.31,100.78,100.6,99.92,98.7,99.09,101.53,101.11,101.48,99.08,98.14,101.41,99.09,99.61,99.75,100.43,100.52,100.52,100.97,101.01,100.63,98.57,98.18,101.35,98.12,98.7,98.57,98.65,98.86,98.75
2473.09,102.15,100.71,100.6,102.15,100.71,100.6,102.15,100.71,100.6,99.91,98.68,99.19,101.54,101.13,101.5,99.13,98.05,101.44,99.13,99.67,99.58,100.39,100.59,100.5,101.04,100.96,100.69,98.71,98.39,101.39,98.22,98.78,98.55,98.67,98.94,98.86
2456.32,102.35,100.81,100.73,102.35,100.81,100.73,102.35,100.81,100.73,99.94,98.76,99.24,101.51,101.13,101.51,99.13,98.11,101.34,99.1,99.59,99.6,100.32,100.56,100.42,100.93,100.92,100.57,98.73,98.39,101.37,98.28,98.85,98.65,98.76,98.88,98.92
2439.54,102.28,100.77,100.66,102.28,100.77,100.66,102.28,100.77,100.66,99.94,98.74,99.09,101.48,101.07,101.46,99.21,98.21,101.42,99.28,99.72,99.74,100.47,100.7,100.63,100.98,101.04,100.72,98.72,98.4,101.42,98.33,98.94,98.63,98.79,98.9,98.93
2422.77,102.28,100.75,100.6,102.28,100.75,100.6,102.28,100.75,100.6,99.92,98.62,99.14,101.35,101.03,101.33,99.22,98.13,101.22,99.13,99.6,99.55,100.42,100.53,100.43,100.86,100.95,100.56,98.76,98.43,101.39,98.34,98.9,98.71,98.84,98.95,98.94
2406,102.17,100.69,100.5,102.17,100.69,100.5,102.17,100.69,100.5,99.82,98.57,98.89,101.2,100.88,101.21,99.11,98.06,101.14,99.07,99.46,99.5,100.23,100.35,100.34,100.73,100.73,100.5,98.58,98.34,101.21,98.15,98.77,98.61,98.77,98.82,98.9
2389.22,102.16,100.73,100.52,102.16,100.73,100.52,102.16,100.73,100.52,99.77,98.56,98.81,100.96,100.73,101.17,99.02,97.92,100.91,98.96,99.36,99.42,100.11,100.09,100.18,100.62,100.63,100.38,98.51,98.23,101.04,97.96,98.68,98.5,98.7,98.81,98.71
2372.45,102.19,100.6,100.47,102.19,100.6,100.47,102.19,100.6,100.47,100.23,98.9,99.19,101.57,101.25,101.57,99.03,97.98,101.37,98.78,99.17,99.13,99.86,99.93,99.89,100.32,100.31,99.93,98.55,98.2,100.68,97.97,98.6,98.33,98.39,98.68,98.63
2355.68,102.08,100.68,100.54,102.08,100.68,100.54,102.08,100.68,100.54,100.01,98.83,99.05,101.49,101.08,101.46,99.24,98.24,101.33,99.24,99.7,99.65,100.49,100.51,100.44,101.14,101.08,100.69,98.74,98.46,101.5,98.23,98.86,98.67,98.7,98.9,98.92
2338.9,102.15,100.73,100.55,102.15,100.73,100.55,102.15,100.73,100.55,99.89,98.74,99.06,101.29,100.93,101.27,99.28,98.22,101.01,99.12,99.73,99.61,100.42,100.56,100.39,101.06,101.08,100.76,98.72,98.51,101.52,98.3,98.89,98.68,98.89,99.01,98.96
2322.13,102.08,100.56,100.45,102.08,100.56,100.45,102.08,100.56,100.45,99.78,98.57,98.97,101.14,100.76,101.05,99.04,98,100.89,98.93,99.35,99.38,100.03,100.2,100.12,100.59,100.64,100.29,98.45,98.19,100.95,98.05,98.63,98.46,98.54,98.65,98.63
2305.36,102.19,100.69,100.61,102.19,100.69,100.61,102.19,100.69,100.61,99.82,98.73,99.17,101.25,100.87,101.17,99.29,98.2,100.98,99.23,99.68,99.61,100.29,100.54,100.42,100.89,100.76,100.44,98.81,98.48,101.2,98.36,98.89,98.6,98.9,98.98,98.96
2288.59,102.19,100.71,100.62,102.19,100.71,100.62,102.19,100.71,100.62,99.93,98.78,99.25,101.56,101.09,101.5,99.26,98.23,101.35,99.15,99.68,99.66,100.37,100.5,100.49,100.8,100.91,100.6,98.66,98.43,101.14,98.37,98.88,98.65,98.95,98.9,98.9
2271.81,102.34,100.7,100.62,102.34,100.7,100.62,102.34,100.7,100.62,100.04,99.22,99.58,101.92,101.44,101.87,99.54,98.68,101.82,99.63,100.18,100.25,100.91,101.07,100.92,101.49,101.47,101.12,99.11,98.81,101.83,98.76,99.32,98.98,99.27,99.35,99.3
2255.04,102.4,100.83,100.72,102.4,100.83,100.72,102.4,100.83,100.72,100.43,99.48,100.01,102.34,101.98,102.19,99.56,98.75,102.19,99.88,100.3,100.25,100.99,101.18,101.02,101.44,101.41,101.17,99.53,99.1,101.86,99.15,99.79,99.55,99.63,99.79,99.84
2238.27,102.49,100.72,100.67,102.49,100.72,100.67,102.49,100.72,100.67,100.75,99.61,100.22,102.57,102.06,102.3,99.62,98.8,102.65,100.03,100.36,100.41,101.08,101.36,101.09,101.51,101.68,101.55,99.48,99.1,102.03,99.32,99.72,99.32,99.54,99.63,99.86
2221.49,102.39,100.83,100.92,102.39,100.83,100.92,102.39,100.83,100.92,100.46,99.71,100.28,102.8,102.21,102.52,99.75,99.02,102.77,100.11,100.64,100.43,101.34,101.47,101.55,101.8,101.92,101.6,99.4,99.31,101.94,99.23,99.64,99.53,99.52,99.66,99.73
2204.72,102.87,101.12,101.19,102.87,101.12,101.19,102.87,101.12,101.19,100.62,99.85,100.46,103.26,102.37,102.63,100.02,99.2,102.99,100.38,100.98,100.75,101.49,101.84,101.6,102.41,102.38,102.02,99.74,99.53,102.51,99.81,100.37,100.08,100.23,100.11,100.18
2187.95,102.53,100.99,100.77,102.53,100.99,100.77,102.53,100.99,100.77,100.65,100.1,100.78,103.62,102.69,103.23,100.17,99.59,103.28,100.96,101.27,101.13,102.08,102.47,102.2,102.48,102.49,102.34,99.88,99.6,102.86,100.21,100.34,100.11,100.26,100.23,100.55
2171.17,103.12,101.13,101.03,103.12,101.13,101.03,103.12,101.13,101.03,101.29,100.62,101.38,104.17,103.47,103.78,100.08,99.42,104.16,100.68,101.36,100.97,101.95,102.05,102.03,102.86,102.57,102.58,100.05,99.51,103.13,100.04,100.37,99.91,99.76,100.26,100.3
2154.4,102.53,100.75,100.87,102.53,100.75,100.87,102.53,100.75,100.87,100.75,100.22,100.91,103.32,102.92,103.22,99.92,99.58,103.61,100.92,101.31,101.41,101.56,101.97,101.5,102.6,102.19,102.07,100,99.34,102.96,99.92,100.34,100.16,100.39,100.41,100.45
2137.63,102.54,101.06,100.81,102.54,101.06,100.81,102.54,101.06,100.81,100.32,99.36,99.88,102.34,101.95,102.23,99.88,99,102.03,100.16,100.57,100.41,101.15,101.41,101.3,101.77,101.66,101.48,99.4,99.3,102.22,99.13,99.8,99.61,99.54,99.9,99.79
2120.86,102.03,100.79,100.36,102.03,100.79,100.36,102.03,100.79,100.36,100,99.06,99.49,101.77,101.38,101.63,99.5,98.72,101.53,99.62,100.14,100.1,100.76,100.87,100.86,101.33,101.1,100.88,99.12,99,101.6,98.87,99.26,99.2,99.32,99.4,99.38
2104.08,102.06,100.71,100.58,102.06,100.71,100.58,102.06,100.71,100.58,100.16,99.12,99.33,101.85,101.41,101.74,99.51,98.57,101.57,99.55,99.9,100.01,100.66,100.71,100.58,101,101.07,100.78,99.27,98.9,101.51,98.76,99.3,99.19,99.34,99.3,99.43
2087.31,101.96,100.8,100.6,101.96,100.8,100.6,101.96,100.8,100.6,99.95,99.14,99.53,101.65,101.34,101.49,99.53,98.68,101.3,99.7,100.12,100.02,100.69,100.8,100.69,101.15,101.19,100.85,99,98.85,101.51,98.77,99.3,99.06,99.19,99.17,99.26
2070.54,102.23,100.77,100.71,102.23,100.77,100.71,102.23,100.77,100.71,100.23,99.26,99.8,102.24,101.77,101.85,99.71,98.82,101.75,99.93,100.38,100.31,100.91,101.15,100.97,101.44,101.51,101.24,99.57,99.12,101.8,99.39,99.6,99.5,99.68,99.7,99.75
2053.76,102.43,100.87,100.76,102.43,100.87,100.76,102.43,100.87,100.76,100.35,99.55,100.12,102.64,101.78,102.14,100.07,99.08,102.22,100.24,100.81,100.5,101.18,101.62,101.34,101.63,101.74,101.58,99.47,99.31,102.08,99.7,100.06,99.71,99.81,99.91,99.91
2036.99,102.36,101.32,100.83,102.36,101.32,100.83,102.36,101.32,100.83,101.23,100.6,101.32,103.98,103.11,103.14,100.56,99.86,103.71,101.11,101.71,101.58,102.23,102.6,102.47,102.54,102.83,102.81,100.32,99.98,103.26,100.53,100.36,100.37,100.53,100.41,100.49
2020.22,102.25,100.97,100.57,102.25,100.97,100.57,102.25,100.97,100.57,100.62,99.96,100.54,103.08,102.36,102.53,100.19,99.3,102.61,100.17,100.67,100.85,101.46,101.66,101.43,101.86,102.24,101.82,100.21,99.98,102.39,100.25,100.37,100.59,100.16,100.29,100.48
2003.44,102,100.77,100.79,102,100.77,100.79,102,100.77,100.79,100.43,99.74,100.45,102.63,101.89,102.39,99.91,99.14,102.47,100.37,100.93,100.74,101.31,101.65,101.28,101.9,101.87,101.66,100.05,99.58,102.31,99.81,100.17,99.88,99.88,99.92,100.31
1986.67,102.2,100.61,100.2,102.2,100.61,100.2,102.2,100.61,100.2,100.51,99.99,100.43,102.48,102.17,102.42,99.92,99.18,102.01,100.08,100.68,100.53,101.12,101.57,101.31,101.69,101.82,101.56,99.57,99.22,101.94,99.64,99.82,99.61,99.64,99.96,99.94
1969.9,102.29,100.97,100.54,102.29,100.97,100.54,102.29,100.97,100.54,100.67,100.19,100.13,102.73,102.18,102.34,99.84,99.13,102.42,100.16,100.73,100.52,101.15,101.32,100.87,101.67,101.96,101.64,99.89,99.68,102.11,99.59,100.05,100.08,99.93,99.96,100.04
1953.13,101.81,100.63,100.3,101.81,100.63,100.3,101.81,100.63,100.3,99.78,98.99,98.98,101.03,100.92,101.06,99.35,98.59,101.03,99.16,99.66,99.76,100.45,100.21,100.29,100.66,100.73,100.81,98.78,98.75,100.99,98.25,99.07,99.06,99.07,99.08,99.03
1936.35,101.57,100.54,100.44,101.57,100.54,100.44,101.57,100.54,100.44,99.8,99.08,99.19,100.97,100.71,101.05,99.18,98.41,100.75,99.18,99.44,99.55,100.03,100.08,100.09,100.5,100.52,100.4,99.02,98.79,100.9,98.53,99.12,99.07,99.2,99.31,99.31
1919.58,101.38,100.53,100.38,101.38,100.53,100.38,101.38,100.53,100.38,99.69,98.83,99.19,100.57,100.42,100.73,99.22,98.37,100.35,99.16,99.52,99.55,100.03,100.12,100.01,100.4,100.32,100.11,99.03,98.91,100.61,98.73,99.13,99.04,99.18,99.19,99.23
1902.81,101.5,100.48,100.36,101.5,100.48,100.36,101.5,100.48,100.36,99.95,98.94,99.3,100.83,100.53,100.88,99.33,98.6,100.56,99.34,99.72,99.75,100.15,100.32,100.24,100.55,100.64,100.36,99.14,98.97,100.8,98.78,99.21,99.11,99.26,99.35,99.28
1886.03,101.52,100.56,100.36,101.52,100.56,100.36,101.52,100.56,100.36,99.65,98.88,99.29,100.71,100.34,100.61,99.32,98.51,100.45,99.29,99.61,99.55,100.08,100.24,100.13,100.5,100.4,100.25,99.14,98.92,100.69,98.76,99.29,99.1,99.24,99.2,99.27
1869.26,101.22,100.31,100.2,101.22,100.31,100.2,101.22,100.31,100.2,99.68,98.97,99.35,100.44,100.1,100.22,99.31,98.62,100,99.21,99.47,99.37,99.68,99.92,99.83,100.14,100.07,99.81,99.09,98.9,100.18,98.67,99.03,98.84,98.93,99.1,98.99
1852.49,101.43,100.46,100.33,101.43,100.46,100.33,101.43,100.46,100.33,99.61,98.86,99.09,100.48,100.26,100.45,99.12,98.44,100.26,99.07,99.41,99.38,99.86,99.85,99.82,100.15,100.22,99.98,98.97,98.77,100.42,98.48,99.01,98.86,99.06,99.05,99.03
1835.71,101.08,100.23,100.13,101.08,100.23,100.13,101.08,100.23,100.13,99.46,98.58,98.47,99.9,99.93,100.11,98.7,98.16,99.87,98.65,98.96,99.03,99.45,99.24,99.25,99.63,99.78,99.81,98.67,98.53,100.09,97.94,98.65,98.7,98.86,98.84,98.8
1818.94,100.87,100.2,100,100.87,100.2,100,100.87,100.2,100,99.3,98.33,98.06,99.4,99.57,99.8,98.56,97.96,99.49,98.37,98.68,98.75,99.23,98.8,98.94,99.3,99.47,99.53,98.45,98.29,99.85,97.52,98.38,98.47,98.75,98.75,98.66
1802.17,100.51,100.03,99.89,100.51,100.03,99.89,100.51,100.03,99.89,99.19,98.29,97.99,99.13,99.35,99.59,98.34,98,99.22,98.26,98.53,98.65,99.03,98.64,98.7,99.02,99.23,99.34,98.4,98.34,99.6,97.45,98.32,98.42,98.67,98.66,98.53
1785.39,100.41,100.02,99.83,100.41,100.02,99.83,100.41,100.02,99.83,99.2,98.13,97.59,98.84,99.32,99.48,98.03,97.75,99.16,98,98.22,98.5,98.89,98.17,98.4,98.71,99.06,99.33,98.18,98.18,99.4,97.02,98,98.3,98.56,98.57,98.42
1768.62,99.98,99.88,99.57,99.98,99.88,99.57,99.98,99.88,99.57,98.78,97.71,96.74,97.75,98.57,98.72,97.49,97.37,98.25,97.37,97.46,97.86,98.17,97.15,97.46,97.83,98.22,98.69,97.83,97.9,98.64,96.28,97.52,97.97,98.26,98.24,98.07
1751.85,96.98,98.54,98.39,96.98,98.54,98.39,96.98,98.54,98.39,97.6,96.1,93.75,94.28,96.59,96.53,94.45,95.85,95.7,95.01,95,95.93,96.4,93.63,94.35,94.88,95.73,97.22,96.36,96.37,96.69,92.84,95.33,96.61,97.14,97.3,96.82
1735.08,84.43,92.03,92.02,84.43,92.03,92.02,84.43,92.03,92.02,90.67,84.57,75.16,75.45,86.07,84.51,77.12,84.93,83.61,79.16,78.26,83.33,81.58,69.4,73.74,77.18,80.85,87.93,85.54,85.21,85,69.38,80.74,86.05,88.54,89.68,87.7
1718.3,66.35,82.11,78.98,66.35,82.11,78.98,66.35,82.11,78.98,82.27,66.52,47.29,49.3,69.66,68.4,58.83,67.02,63.99,56.36,54.12,64.12,61.03,42.25,48.93,56.17,62.31,72.26,67.35,68.88,69.16,38.72,60.59,69.26,75.03,77.49,72.35
1701.53,78.44,87.9,80.21,78.44,87.9,80.21,78.44,87.9,80.21,84.03,66.41,47.04,51.25,68.97,69.89,65.68,65.61,62.4,57.85,56.08,64.34,63.87,50.66,54.77,60.8,65.65,71.95,66.35,69.88,70.43,44.56,62.32,69.28,75.5,77.24,71.24
1684.76,88.84,93.1,91.54,88.84,93.1,91.54,88.84,93.1,91.54,89.47,79.65,68.43,70.6,80.87,80.93,78.24,79.52,77.2,74.46,73.88,78.94,78.24,69.43,72.58,75.32,78.29,82.69,80.59,81.61,81.21,65.62,76.96,81.15,83.99,85.02,81.95
1667.98,93.77,95.63,95.48,93.77,95.63,95.48,93.77,95.63,95.48,92.47,86.29,78.81,80.92,87.15,87.48,86.26,86.43,85.14,83.51,83.88,86.86,86.77,81.8,83.52,84.36,86.49,89.13,87.69,87.85,87.89,78.25,85.01,87.55,88.4,88.88,87.41
1651.21,95.93,96.71,97.27,95.93,96.71,97.27,95.93,96.71,97.27,93.93,89.79,84.65,86.51,90.29,90.84,90.71,90.3,88.92,88.43,88.99,91.07,90.95,88.39,89.47,88.96,90.36,91.73,91.65,91.29,90.95,85.15,89.46,90.75,90.12,90.37,89.91
1634.44,96.8,97.22,97.82,96.8,97.22,97.82,96.8,97.22,97.82,94.71,90.74,86.13,88.31,91.47,92.16,92.06,91.3,90.22,89.95,90.49,92.29,92.46,90.36,91.19,90.52,91.95,92.7,92.58,92.31,92.27,86.99,90.93,91.77,90.99,91.19,90.84
1617.66,96.64,96.96,97.84,96.64,96.96,97.84,96.64,96.96,97.84,95.28,91.52,87.2,89.07,92.26,92.82,92.14,91.86,91.19,90.42,91.18,92.81,93.17,90.93,91.61,90.95,92.48,93.4,92.86,92.58,92.91,87.46,91.16,92.13,91.52,91.63,91.33
1600.89,98.01,97.85,98.54,98.01,97.85,98.54,98.01,97.85,98.54,96.19,92.78,89.24,90.94,93.35,94.19,93.79,92.9,92.7,92.19,93.06,94.19,94.9,93.61,93.89,93.27,94.42,94.63,93.86,93.66,94.46,89.86,92.65,93.23,92.62,92.61,92.47
1584.12,97.11,97.19,98.27,97.11,97.19,98.27,97.11,97.19,98.27,95.85,92.82,89.2,90.93,93.56,94.07,93.11,93.15,93.04,92.24,93.14,94.28,94.81,92.88,93.42,92.84,94.15,94.96,94.11,93.69,94.41,89.59,92.59,93.33,92.7,92.72,92.66
1567.35,98.27,98.02,98.58,98.27,98.02,98.58,98.27,98.02,98.58,96.14,93.06,89.9,91.65,93.65,94.44,94.34,93.3,92.98,92.74,93.39,94.37,94.95,93.88,94.22,93.66,94.64,94.84,94.24,94.15,94.68,90.74,93.25,93.66,93.02,93.03,92.87
1550.57,98.83,98.32,99.02,98.83,98.32,99.02,98.83,98.32,99.02,96.57,94.19,92.14,93.73,95.03,95.75,95.66,94.62,94.45,94.16,94.89,95.49,95.83,95.58,95.76,94.86,95.57,95.62,95.54,95.15,95.4,92.79,94.45,94.59,93.45,93.39,93.62
1533.8,98.84,98.43,99.15,98.84,98.43,99.15,98.84,98.43,99.15,96.6,94.54,93.01,94.03,95.19,95.71,95.81,95.12,94.62,94.37,94.96,95.63,95.58,95.35,95.69,94.74,95.37,95.43,95.96,95.42,95.19,93.27,94.75,94.92,93.53,93.47,93.86
1517.03,98.74,98.5,99.19,98.74,98.5,99.19,98.74,98.5,99.19,96.64,94.86,93.6,94.22,95.25,95.6,95.99,95.5,94.66,94.77,95.15,95.76,95.64,95.33,95.68,94.92,95.37,95.64,96.25,95.74,95.4,93.66,95.15,95.26,93.96,94.02,94.37
1500.25,98.64,98.67,98.4,98.64,98.67,98.4,98.64,98.67,98.4,96.59,93.37,90.56,91.77,94.06,94.63,94.12,93.39,93.13,92.32,92.46,93.77,93.87,92.33,92.95,92.93,93.93,94.46,93.74,94.04,94.34,90.2,92.88,93.68,93.41,93.46,93.14
1483.48,99.04,98.87,99.22,99.04,98.87,99.22,99.04,98.87,99.22,97.56,95.86,94.53,95.6,96.68,96.99,96.21,95.97,96.38,95.74,96.16,96.65,96.93,96.21,96.46,96.28,96.82,97.24,96.64,96.31,97.1,94.37,95.87,96.16,95.77,95.77,95.86
1466.71,95.38,97.22,97.42,95.38,97.22,97.42,95.38,97.22,97.42,95.46,92.29,88.43,89.21,92.73,93.07,91.53,92.37,91.45,91.09,91.35,92.75,93.27,90.23,91.06,91.21,92.49,94.25,93.2,93.22,93.48,87.99,91.61,93.14,93.32,93.45,92.95
1449.93,93.4,96.21,95.64,93.4,96.21,95.64,93.4,96.21,95.64,93.44,88.18,81.75,83.06,88.99,89.26,86.91,88.18,87.09,85.65,85.55,88.22,88.32,82.95,84.61,85.64,87.81,90.68,88.8,89.42,89.49,80.64,86.69,89.4,90.28,90.5,89.34
1433.16,97.3,98.25,98.03,97.3,98.25,98.03,97.3,98.25,98.03,96.04,92.81,89.49,90.52,93.27,93.82,93.02,92.73,92.18,91.84,92.02,93.24,93.75,91.59,92.21,92.41,93.43,94.45,93.41,93.65,94.13,89.35,92.38,93.47,93.57,93.65,93.18
1416.39,94.76,96.61,97.5,94.76,96.61,97.5,94.76,96.61,97.5,95,92.61,89.15,89.82,93.34,93,90.77,93.19,92.65,91.4,91.75,93.25,92.88,89.09,90.41,90.68,92.13,94.75,94.18,93.42,93.37,87.94,91.89,93.55,93.38,93.54,93.44
1399.62,94.62,96.78,95.79,94.62,96.78,95.79,94.62,96.78,95.79,93.63,87.92,81.4,82.95,88.67,89.08,87.29,87.82,86.78,85.15,84.9,87.83,87.79,82.82,84.46,85.61,87.65,89.98,88.29,89.13,89.17,80.38,86.51,88.8,89.73,90.03,88.65
1382.84,95.36,97.11,97.01,95.36,97.11,97.01,95.36,97.11,97.01,94.95,91.18,86.75,87.93,92.07,92.21,90.2,91.29,90.91,89.53,89.66,91.55,91.57,87.77,89.03,89.62,91.22,93.33,92.03,92.1,92.38,85.82,90.27,92.06,92.38,92.53,91.89
1366.07,95.77,97.41,96.78,95.77,97.41,96.78,95.77,97.41,96.78,94.83,90.28,85.21,86.62,91.08,91.48,89.84,90.19,89.62,88.36,88.28,90.4,90.61,86.79,87.97,88.77,90.46,92.27,90.73,91.28,91.61,84.56,89.27,91.2,91.77,91.93,90.93
1349.3,97.27,98.15,98.33,97.27,98.15,98.33,97.27,98.15,98.33,96.56,94.11,91.43,92.44,94.84,95.03,93.71,94.2,94.12,93.28,93.53,94.6,94.79,92.7,93.36,93.54,94.5,95.69,94.87,94.76,95.19,90.96,93.68,94.62,94.61,94.65,94.43
1332.52,97.35,98.25,98.07,97.35,98.25,98.07,97.35,98.25,98.07,96.48,93.63,90.54,91.68,94.43,94.7,93.22,93.62,93.6,92.54,92.62,93.94,94.11,91.76,92.52,92.9,93.9,95.25,94.17,94.27,94.75,90.05,93.06,94,94.34,94.42,94.01
1315.75,94.92,96.9,96.81,94.92,96.9,96.81,94.92,96.9,96.81,94.9,91.2,86.58,87.75,92.3,92.21,89.67,91.44,91.17,89.29,89.25,91.34,90.96,86.73,88.17,89.01,90.73,93.32,91.98,92.04,92.18,85.33,90.09,92.05,92.62,92.87,92.12
1298.98,90.07,94.24,93.96,90.07,94.24,93.96,90.07,94.24,93.96,91.66,85.41,77.9,79.36,87.43,86.87,82.36,86.16,85.59,82.08,81.8,85.42,84.02,76.73,79.28,81.45,84.24,89.02,86.78,86.64,87,74.95,83.37,86.87,88.52,89.21,87.56
1282.2,80.95,89.06,87.89,80.95,89.06,87.89,80.95,89.06,87.89,85.79,73.84,61.68,63.6,77.29,76.62,70.43,75.62,73.91,68.64,67.93,73.92,71.22,60.25,64.32,68.65,72.73,79.97,76.25,76.12,77.37,56.31,70.83,76.17,80.11,81.41,77.89
1265.43,69.09,82.04,80.4,69.09,82.04,80.4,69.09,82.04,80.4,80.15,62.85,46.89,49.26,67.63,67.01,59.85,65.92,62.9,56.45,55.52,63.38,59.65,46,51.24,57.44,62.4,71.59,66.76,66.38,68.65,39.48,59.44,66.05,72.05,74.01,68.84
1248.66,61.97,77.53,75.3,61.97,77.53,75.3,61.97,77.53,75.3,77.4,57.04,39.13,41.87,62.27,61.86,54.83,60.55,56.76,50.1,49.14,57.76,53.8,39.41,44.86,51.87,57.08,66.97,61.67,61.26,64.04,31.27,53.51,60.7,67.68,69.84,63.82
1231.89,60.32,75.37,71.75,60.32,75.37,71.75,60.32,75.37,71.75,75.25,51.84,33.79,36.98,57.32,57.92,53.35,55.73,50.94,45.89,45.07,53.25,50.18,37.98,42.58,49.65,54.02,62.77,57.28,57.07,60.79,27.21,49.42,55.8,63.77,65.64,58.76
1215.11,79.03,86.67,84.96,79.03,86.67,84.96,79.03,86.67,84.96,81.69,65.76,52.97,55.07,68.84,69.1,66.42,68.16,64.57,61.26,61.35,66.69,64.77,55.79,59.14,63.89,66.64,73.74,69.8,69.22,71.31,48.27,63.39,68.46,73.65,74.78,70.24
1198.34,88.34,92.57,92.12,88.34,92.57,92.12,88.34,92.57,92.12,87.96,77.83,69.61,71.07,79.57,79.74,78.14,79.32,77.01,75,75.31,78.72,77.76,71.62,73.89,76.63,78.45,83.04,80.86,80.13,81.52,66.62,76.4,79.72,82.73,83.46,80.68
1181.57,91.55,94.94,94.89,91.55,94.94,94.89,91.55,94.94,94.89,91.61,85.11,79.08,80.11,86.23,86.16,84.34,85.99,84.28,82.99,83.17,85.67,85.29,80.04,81.9,83.48,85.17,88.63,87.23,86.7,87.52,76.88,83.98,86.61,88.32,88.76,87.12
1164.79,93.39,96.27,95.79,93.39,96.27,95.79,93.39,96.27,95.79,93.06,87.3,81.79,82.9,88.02,88.31,86.98,87.76,86.16,85.42,85.44,87.68,87.81,83.44,84.85,86.06,87.54,90.1,88.73,88.77,89.45,80.56,86.43,88.71,90.05,90.32,88.9
1148.02,91.45,95.19,95.01,91.45,95.19,95.01,91.45,95.19,95.01,92.33,86.75,80.55,81.5,87.88,87.61,84.77,87.41,86.12,84.26,84.27,86.94,86.42,80.49,82.48,84,86.15,89.99,88.28,88.08,88.42,78.39,85.31,88.24,89.79,90.12,88.71
1131.25,83.53,90.44,89.99,83.53,90.44,89.99,83.53,90.44,89.99,87.08,77.2,66.7,68.2,79.65,78.95,73.81,78.83,76.99,72.76,72.5,77.36,75.31,65.41,68.92,72.33,75.86,82.74,79.66,79.25,79.92,62.25,74.52,79.41,82.55,83.45,80.67
1114.47,72.21,83.61,81.69,72.21,83.61,81.69,72.21,83.61,81.69,80.27,63.43,48.5,50.74,67.39,67.07,61.67,66.34,63.01,57.76,57.14,64.14,61.16,49.11,53.47,59.05,63.35,72.09,67.28,67.11,69.08,42.44,60.48,66.49,72.45,73.8,68.85
1097.7,60.48,75.86,74.63,60.48,75.86,74.63,60.48,75.86,74.63,75.46,54.26,37.84,40.28,59.73,59.45,53.71,59.08,54.77,48.92,48.46,56.15,51.97,39.24,44.14,51.16,55.7,65.9,60.54,59.06,62.6,30.03,51.68,58.1,65.98,67.75,61.58
1080.93,62.15,75.87,73.34,62.15,75.87,73.34,62.15,75.87,73.34,74.11,51.24,35.21,37.88,56.31,56.93,53.8,56.1,51.04,46.79,46.51,53.55,50.4,39.91,43.91,50.59,54.35,63.33,57.89,56.7,60.8,28.88,49.55,55.14,63.5,64.82,58.31
1064.15,78.64,85.91,84.98,78.64,85.91,84.98,78.64,85.91,84.98,80.15,63.83,52.24,54.3,66.74,67.21,65.77,67.44,63.5,60.63,61.02,65.93,63.79,56.03,59.01,63.66,66.03,73.15,69.43,67.86,70.61,48.08,62.57,66.9,72.48,73.41,68.91
1047.38,81.05,87.65,87.69,81.05,87.65,87.69,81.05,87.65,87.69,82.76,69.32,58.59,60.44,71.7,71.72,69.41,72.62,69.32,66.26,66.68,71.21,69.25,60.91,63.96,67.89,70.67,77.62,74.41,72.88,74.87,54.82,67.87,72.42,76.75,77.62,74.03
1030.61,83.82,89.54,89.24,83.82,89.54,89.24,83.82,89.54,89.24,84.2,71.74,61.84,63.81,73.77,74.07,72.32,74.68,71.53,69,69.18,73.49,72.03,64.5,67.15,70.66,73.26,79.27,76.3,75.23,77.08,58.86,70.63,74.83,78.62,79.3,76.01
1013.84,70.7,80.8,78.62,70.7,80.8,78.62,70.7,80.8,78.62,76.21,55.82,41.66,44.42,59.83,60.68,58.99,60.51,55.82,52.39,52.55,58.4,55.85,46.87,50.28,56.06,59.34,67.41,62.31,61.14,64.68,37.03,54.67,59.74,67.12,68.08,62.4
997.063,87.02,90.95,91.12,87.02,90.95,91.12,87.02,90.95,91.12,85.1,73.34,65.91,67.37,75.42,75.73,75.36,76.47,73.64,71.85,72.48,75.52,73.93,68.7,70.78,73.86,75.51,80.58,78.33,76.51,78.85,62.71,72.79,75.73,79.65,80.28,77.19
980.29,87.77,91.76,91.96,87.77,91.76,91.96,87.77,91.76,91.96,86.67,76.32,69.18,70.41,78.37,78.3,77.13,78.93,76.52,74.54,75.03,77.93,76.41,70.75,72.91,75.66,77.63,82.65,80.44,79.01,80.87,65.83,75.37,78.39,81.97,82.49,79.8
963.517,86.54,91.07,91.01,86.54,91.07,91.01,86.54,91.07,91.01,85.83,74.77,66.9,68.11,76.99,76.87,75.27,77.39,74.89,72.54,73.05,76.26,74.51,68.17,70.64,73.7,75.83,81.4,78.85,77.52,79.3,63.11,73.54,76.86,80.82,81.36,78.45
946.744,88.13,91.92,91.75,88.13,91.92,91.75,88.13,91.92,91.75,86.33,75.43,68.08,69.39,77.46,77.59,76.69,77.88,75.49,73.41,73.99,76.99,75.37,70.03,72.12,75.03,76.75,81.75,79.4,78.06,79.95,64.75,74.45,77.36,81.1,81.67,78.7
929.971,91.55,94.04,94.22,91.55,94.04,94.22,91.55,94.04,94.22,89.09,80.57,75.19,76.25,82.1,82.27,81.9,82.65,80.73,79.32,79.88,82.14,80.91,76.98,78.55,80.61,81.94,85.57,84.13,82.73,84.38,72.65,80.08,82.15,84.81,85.33,83.07
913.198,92.9,95.02,95.23,92.9,95.02,95.23,92.9,95.02,95.23,90.7,83.54,79.02,79.86,84.81,84.89,84.47,85.29,83.68,82.5,82.91,84.87,83.89,80.24,81.75,83.41,84.64,87.76,86.6,85.33,86.84,76.71,83.08,84.93,87.03,87.47,85.65
896.425,90.61,93.81,93.72,90.61,93.81,93.72,90.61,93.81,93.72,88.98,80.56,74.34,75.39,82.12,82.07,80.84,82.39,80.55,78.7,79.12,81.62,80.35,75.36,77.27,79.45,81.28,85.54,83.59,82.61,83.97,71.56,79.53,82.27,84.98,85.38,83.14
879.652,86.72,91.41,91.61,86.72,91.41,91.61,86.72,91.41,91.61,86.77,77.22,69.55,70.57,79.38,78.83,76.23,79.55,77.57,74.75,75.19,78.31,76.37,69.6,72.21,74.98,77.42,83.45,80.96,79.53,80.85,65.82,75.71,79.23,82.68,83.28,80.69
862.879,88.89,92.51,92.16,88.89,92.51,92.16,88.89,92.51,92.16,86.43,75.81,68.78,69.94,77.64,77.88,77.43,78.29,75.86,74.13,74.54,77.32,75.89,71.2,73.01,75.75,77.38,82.03,79.7,78.39,80.39,66.02,74.96,77.64,81.28,81.73,78.84
846.106,89.89,93.12,93.23,89.89,93.12,93.23,89.89,93.12,93.23,87.82,78.8,72.5,73.56,80.42,80.41,79.65,81.1,78.92,77.35,77.84,80.24,78.89,74.3,76.07,78.35,79.93,84.45,82.45,81.06,82.72,69.97,78,80.48,83.39,83.88,81.51
829.333,91.63,94.25,94.33,91.63,94.25,94.33,91.63,94.25,94.33,89.03,80.95,75.31,76.47,82.11,82.37,82.09,83.09,80.94,79.74,80.24,82.42,81.34,77.57,78.97,80.9,82.28,86,84.4,83.05,84.61,73.55,80.44,82.57,85.02,85.42,83.31
812.56,91.79,94.57,94.52,91.79,94.57,94.52,91.79,94.57,94.52,89.22,81.43,75.77,77.28,82.23,82.72,82.79,83.8,81.51,80.43,80.93,83.21,82.48,78.79,80.09,81.9,83.32,86.87,85.27,84.09,85.49,75.12,81.58,83.6,85.84,86.16,84.27
795.787,90.43,93.65,93.62,90.43,93.65,93.62,90.43,93.65,93.62,88.18,79.92,73.66,75.34,80.87,81.27,80.99,82.62,80.14,78.92,79.4,81.88,80.97,76.47,77.98,80.06,81.82,85.99,84.09,82.74,84.23,72.71,79.98,82.45,84.85,85.21,83.14
779.014,95.07,96.32,96.51,95.07,96.32,96.51,95.07,96.32,96.51,92.14,86.28,82.39,83.76,86.97,87.49,87.92,87.98,86.54,85.94,86.47,88.01,87.38,85.07,86.03,86.86,87.88,89.93,89.2,88.14,89.28,81.92,86.57,87.61,88.86,89.11,87.76
762.241,97.21,97.91,98.03,97.21,97.91,98.03,97.21,97.91,98.03,94.89,91.02,88.4,89.46,91.57,91.99,92.31,92.19,91.16,90.97,91.32,92.23,92.08,90.59,91.28,91.46,92.14,93.39,93.09,92.43,93,88.51,91.37,92.08,92.61,92.45,91.79
745.468,96.48,97.55,97.88,96.48,97.55,97.88,96.48,97.55,97.88,94.94,91.93,89.04,90.12,92.67,92.58,91.99,92.91,92.14,91.53,92.01,92.82,92.43,90.43,91.18,91.38,92.44,94.39,93.74,93.03,93.35,88.71,91.84,92.79,93.22,93.19,92.76
728.695,62.04,74.28,74.99,62.04,74.28,74.99,62.04,74.28,74.99,70.12,48.03,35.89,37.66,53.77,53.83,51.59,55.39,50.67,46.53,47.59,51.89,47.33,39.86,43.36,49.71,52.47,63.2,57.86,53.31,58.73,28.97,47.48,51.47,60.48,61.48,55.46
711.922,76.75,83.67,84.03,76.75,83.67,84.03,76.75,83.67,84.03,74.31,55.8,46.54,48.03,59.58,60.41,61.85,61.29,57.05,55.65,56.4,59.15,56.6,53.23,54.75,58.88,60.36,67.82,63.97,60.52,65.19,43.33,56.23,58.7,65.66,65.9,60.96
695.149,86.73,90.1,91.05,86.73,90.1,91.05,86.73,90.1,91.05,81.39,68.65,62.41,64.02,71.14,71.87,73.51,73.09,69.7,69.12,70.27,72.08,69.91,67.73,68.69,71.41,72.16,77.49,75.41,72.39,75.11,60.86,69.46,71.35,75.08,75.28,72.14
678.375,89.32,91.92,92.61,89.32,91.92,92.61,89.32,91.92,92.61,84.03,73.38,67.56,69.34,75.21,76.03,77.32,77.43,74.56,73.99,74.85,76.2,74.92,72.75,73.79,75.56,76.63,81.07,79.53,76.44,78.79,66.98,74.1,75.65,78.45,78.9,76.3
661.602,91.93,93.23,94.27,91.93,93.23,94.27,91.93,93.23,94.27,86.36,77.4,72.49,74.8,78.97,79.47,80.93,80.72,78.33,77.77,78.71,80.43,79.08,77.27,78.04,79.11,79.75,83.61,82.81,80.24,81.83,72.45,78.06,79.65,81.25,81.74,79.58
650.42,92.41,93.43,94.55,92.41,93.43,94.55,92.41,93.43,94.55,87.22,78.52,74.63,76.3,80.08,80.78,83,82.33,80.04,80.03,80.87,82.1,80.63,79.32,80.02,80.82,82.02,85.18,84.24,81.98,83.6,74.12,80.28,80.8,82.46,82.94,80.91