File: 5_RW_thesis/Degradation_FTIR/FTIR_results.csv
DT13_LCNeg1_2019-06-04T15-59-48 (2),DT13_LCNeg1_2019-06-04T15-59-48,DT13_LCNeg1_2019-06-04T16-02-11 (2),DT13_LCNeg1_2019-06-04T16-02-11,DT13_LCNeg2_2019-06-04T16-05-00 (2),DT13_LCNeg2_2019-06-04T16-05-00,DT13_LCNeg2_2019-06-04T16-07-11 (2),DT13_LCNeg2_2019-06-04T16-07-11,DT13_LCNeg3_2019-06-04T16-07-51 (2),DT13_LCNeg3_2019-06-04T16-07-51,DT13_LCNeg3_2019-06-04T16-08-50,DT13_LCNeg4_2019-06-04T16-09-20,DT13_LCNeg5_2019-06-04T16-10-15 (2),DT13_LCNeg5_2019-06-04T16-10-15,DT14_LCNeg1_2019-06-04T16-17-14,DT14_LCNeg2_2019-06-04T16-16-09,DT14_LCNeg2_2019-06-04T16-16-49,DT14_LCNeg3_2019-06-04T16-15-04,DT14_LCNeg4_2019-06-04T16-14-04,DT14_LCNeg5_2019-06-04T16-13-07,DT15_LCNeg1_2019-06-04T16-18-14,DT15_LCNeg2_2019-06-04T16-19-04,DT15_LCNeg3_2019-06-04T16-19-47,DT15_LCNeg4_2019-06-04T16-21-48,DT15_LCNeg4_2019-06-04T16-22-22,DT15_LCNeg5_2019-06-04T16-23-33,DT16_LCB4_1_2019-06-04T16-27-56,DT16_LCB4_2_2019-06-04T16-27-08,DT16_LCB4_3_2019-06-04T16-26-19,DT16_LCB4_4_2019-06-04T16-25-16,DT16_LCB4_5_2019-06-04T16-24-37,DT17_LCB4_1_2019-06-04T16-28-55,DT17_LCB4_2_2019-06-04T16-29-51,DT17_LCB4_3_2019-06-04T16-30-34,DT17_LCB4_4_2019-06-04T16-31-13,DT17_LCB4_5_2019-06-04T16-31-52,DT18_LCB4_1_2019-06-04T16-36-01,DT18_LCB4_2_2019-06-04T16-35-21,DT18_LCB4_3_2019-06-04T16-34-38,DT18_LCB4_4_2019-06-04T16-33-59,DT18_LCB4_5_2019-06-04T16-32-49,DT19_LCB6_1_2019-06-04T16-37-08,DT19_LCB6_2_2019-06-04T16-37-46,DT19_LCB6_3_2019-06-04T16-38-27,DT20_LCB6_1_2019-06-04T16-40-45,DT20_LCB6_2_2019-06-04T16-40-04,DT20_LCB6_3_2019-06-04T16-39-21,DT21_LCB6_1_2019-06-04T16-41-39,DT21_LCB6_2_2019-06-04T16-42-18,DT21_LCB6_3_2019-06-04T16-43-00,DT22_LCB6_2_2019-06-04T16-45-11,DT22_LCComm_1_2019-06-04T16-45-52,DT22_LCComm_3_2019-06-04T16-43-54,DT23_LCComm_1_2019-06-04T16-46-50,DT23_LCComm_2_2019-06-04T16-47-27,DT23_LCComm_3_2019-06-04T16-48-12,DT24_LCComm_1_2019-06-04T16-50-21,DT24_LCComm_2_2019-06-04T16-49-46,DT24_LCComm_3_2019-06-04T16-49-10,DT25_Neg_1_2019-06-04T16-51-45,DT25_Neg_2_2019-06-04T16-53-17,DT25_Neg_3_2019-06-04T16-53-17,DT26_Neg_1_2019-06-04T16-56-32,DT26_Neg_2_2019-06-04T16-55-51,DT26_Neg_3_2019-06-04T16-54-35,DT27_Neg_1_2019-06-04T16-57-33,DT27_Neg_2_2019-06-04T16-58-19,DT27_Neg_3_2019-06-04T16-59-02,DT28_B4_1_2019-06-04T17-01-25,DT28_B4_2_2019-06-04T17-00-46,DT28_B4_3_2019-06-04T17-00-02,DT29_B4_1_2019-06-04T17-02-42,DT29_B4_2_2019-06-04T17-03-29,DT29_B4_3_2019-06-04T17-04-17,DT30_B4_1_2019-06-04T17-07-20,DT30_B4_2_2019-06-04T17-06-31,DT30_B4_3_2019-06-04T17-05-13,DT31_B6_1_2019-06-04T17-08-13,DT31_B6_2_2019-06-04T17-08-58,DT31_B6_3_2019-06-04T17-09-42,DT32_B6_1_2019-06-04T17-12-31,DT32_B6_2_2019-06-04T17-11-34,DT32_B6_3_2019-06-04T17-10-50,DT33_B6_1_2019-06-04T17-13-45,DT33_B6_2_2019-06-04T17-14-35,DT33_B6_3_2019-06-04T17-15-31,DT34_Comm_1_2019-06-04T17-16-46,DT34_Comm_2_2019-06-04T17-18-02,DT34_Comm_3_2019-06-04T17-19-49,DT35_Comm_1_2019-06-04T17-21-02,DT35_Comm_2_2019-06-04T17-21-47,DT35_Comm_3_2019-06-04T17-22-32,DT36_Comm_1_2019-06-04T17-24-37,DT36_Comm_2_2019-06-04T17-25-11,DT36_Comm_3_2019-06-04T17-25-55,DT37_Neg_1_2019-06-04T17-26-49,DT37_Neg_2_2019-06-04T17-27-32,DT37_Neg_3_2019-06-04T17-28-44,DT38_Neg_1_2019-06-04T17-29-39,DT38_Neg_2_2019-06-04T17-30-16,DT38_Neg_3_2019-06-04T17-30-54,DT39_Neg_1_2019-06-04T17-31-49,DT39_Neg_2_2019-06-04T17-32-30,DT39_Neg_3_2019-06-04T17-33-09,DT40_B4_1_2019-06-04T17-34-06,DT40_B4_2_2019-06-04T17-34-40,DT40_B4_3_2019-06-04T17-35-16,DT41_B4_1_2019-06-04T17-36-08,DT41_B4_2_2019-06-04T17-36-43,DT41_B4_3_2019-06-04T17-37-19,DT42_B4_1_2019-06-04T17-38-14,DT42_B4_2_2019-06-04T17-39-20,DT42_B4_3_2019-06-04T17-40-05,DT43_B6_1_2019-06-04T17-41-12,DT43_B6_2_2019-06-04T17-42-25,DT43_B6_3_2019-06-04T17-42-59,DT43_Comm_1_2019-06-04T17-41-12,DT44_B6_1_2019-06-04T17-44-15,DT44_B6_2_2019-06-04T17-44-49,DT44_B6_3_2019-06-04T17-45-26,DT45_B6_1_2019-06-04T17-46-16,DT45_B6_2_2019-06-04T17-46-48,DT45_B6_3_2019-06-04T17-47-25,DT46_Comm_1_2019-06-04T17-48-15,DT46_Comm_2_2019-06-04T17-48-51,DT46_Comm_3_2019-06-04T17-49-50,DT47_Comm_1_2019-06-04T17-50-40,DT47_Comm_2_2019-06-04T17-51-15,DT47_Comm_3_2019-06-04T17-51-48,DT48_Comm_1_2019-06-04T17-52-35,DT48_Comm_2_2019-06-04T17-53-12,DT48_Comm_3_2019-06-04T17-53-46,RW_PET_powder_2019-02-12T09-20-37,RW_PET_weather_2019-02-12T09-22-57,RW_low_crys_2019-02-12T09-05-58
103.27,103.27,99.3,99.3,106.59,106.59,113.46,113.46,115.1,115.1,117.9,118.91,119.83,119.83,106.57,105.53,105.78,104.21,102.07,101.1,106.86,108.52,107.95,110.35,110.9,98.62,101.81,101.34,101.04,99.76,100.05,102.62,103.19,104.22,103.93,104.34,99.17,99.58,99.31,98.34,104.82,99.82,100.51,100.84,101.59,101.69,101.5,102.34,102.45,102.69,98.78,98.67,103.25,99.17,99.45,99.19,99.63,99.91,99.79,98.15,99.33,99.33,97.03,96.24,100.95,96.14,97.33,96.48,98.95,97.58,97.52,96.99,97.62,98.68,96.77,96.54,97.02,96.16,98,97.25,96.98,96.29,96.77,98.2,98.54,98.12,97,95.53,95.44,97.01,96.94,97.08,96.78,97.32,95.24,96.59,96.53,98.11,95.45,97.33,98.68,97.58,98.27,96.85,96.81,95.85,97.78,96.07,96.69,97.91,95.98,95.64,95.74,95.18,95.5,96.57,95.18,95.58,96.33,95.95,95.91,97.54,97.7,96.5,96.99,95.69,95.64,97.56,97.99,96.43,96.37,97.61,95.67,96.63,99.55
103.32,103.32,99.19,99.19,106.3,106.3,113.02,113.02,114.85,114.85,117.32,118.35,119.37,119.37,105.62,104.86,104.94,103.78,101.71,101.06,105.82,107.57,106.85,109.03,109.63,98.87,101.81,101.43,101.2,99.88,100.33,102.75,103.47,104.33,104.04,104.49,99.23,99.79,99.48,98.42,104.93,99.81,100.53,100.77,101.56,101.89,101.63,102.17,102.45,102.58,98.74,98.61,103.04,99.17,99.2,99.01,99.4,99.77,99.53,97.92,99.14,99.14,97.04,96.23,100.74,96.09,97.34,96.28,98.82,97.44,97.37,96.91,97.45,98.47,96.79,96.62,96.77,96.12,97.95,97.19,96.95,96.15,96.67,98.05,98.4,98.1,96.87,95.52,95.52,96.96,96.91,96.99,96.51,97.17,95.15,96.44,96.34,98.04,95.47,97.38,98.58,97.6,98.13,96.72,96.76,95.82,97.69,95.82,96.62,97.78,95.83,95.66,95.83,95.12,95.65,96.65,95.12,95.5,96.26,95.95,95.86,97.46,97.66,96.53,97.04,95.65,95.5,97.47,97.9,96.38,96.27,97.54,95.63,96.6,99.5
102.56,102.56,99.31,99.31,106.38,106.38,112.68,112.68,114.34,114.34,116.9,117.94,118.72,118.72,106.21,105.35,105.51,104.06,102.13,101.14,106.47,108.15,107.73,109.91,110.41,98.75,101.59,101.04,100.76,99.78,99.95,102.51,102.89,103.79,103.54,103.99,99.22,99.86,99.6,98.64,104.39,99.89,100.44,100.87,101.42,101.61,101.43,102.17,102.14,102.36,98.96,98.98,102.88,99.37,99.48,99.34,99.66,99.84,99.82,98.38,99.33,99.33,97.17,96.36,100.72,96.28,97.32,96.74,98.86,97.48,97.55,96.99,97.62,98.57,96.78,96.57,97.07,96.23,97.93,97.4,97.09,96.34,96.75,98.34,98.58,98.2,97.15,95.86,95.81,97.32,97.19,97.26,96.93,97.66,95.76,96.87,96.71,98.19,95.61,97.38,98.7,97.74,98.32,97.16,96.79,96.06,97.88,96.21,96.82,97.96,96.26,95.71,95.84,95.27,95.66,96.75,95.27,95.71,96.53,96,96.01,97.59,97.68,96.34,96.99,96.04,95.98,97.78,98.18,96.84,96.77,97.99,96.01,96.82,99.51
102.94,102.94,99.41,99.41,106.21,106.21,112.59,112.59,114.29,114.29,116.58,117.63,118.64,118.64,106.18,105.36,105.51,103.99,102.01,101.12,106.3,108.19,107.73,109.99,110.5,98.71,101.76,101.39,101,99.85,100.1,102.74,103.17,104.07,103.88,104.26,99.25,99.84,99.53,98.56,104.8,99.91,100.59,100.85,101.63,101.81,101.6,102.39,102.46,102.66,98.96,98.85,103.24,99.31,99.65,99.28,99.77,99.98,99.89,98.38,99.38,99.38,97.26,96.3,101.02,96.21,97.41,96.6,99,97.6,97.56,97.19,97.74,98.71,96.81,96.59,97.09,96.31,97.97,97.34,97.02,96.35,96.7,98.35,98.58,98.33,97.12,95.75,95.63,97.18,97.14,97.23,96.81,97.53,95.65,96.72,96.81,98.14,95.53,97.42,98.7,97.74,98.36,97.03,96.9,96.13,97.95,96.21,96.87,97.93,96.25,95.72,95.9,95.37,95.65,96.72,95.37,95.7,96.43,96.1,95.98,97.67,97.82,96.47,97.05,96,95.87,97.65,98.05,96.62,96.58,97.95,95.76,96.74,99.55
102.49,102.49,99.48,99.48,106.34,106.34,112.63,112.63,114.17,114.17,116.51,117.46,118.38,118.38,105.67,104.83,104.99,103.63,101.84,101.17,105.79,107.38,106.84,109.1,109.53,98.59,101.44,101.04,100.71,99.59,99.86,102.31,102.68,103.73,103.41,103.61,99.17,99.91,99.47,98.43,104.18,99.9,100.39,100.76,101.43,101.69,101.43,102.22,102.19,102.3,98.98,98.93,102.82,99.29,99.55,99.32,99.68,99.97,99.79,98.33,99.37,99.37,97.23,96.3,100.82,96.24,97.39,96.63,98.92,97.57,97.44,97.06,97.51,98.42,96.87,96.66,96.9,96.26,97.95,97.29,96.86,96.23,96.64,98.08,98.42,98.08,96.82,95.76,95.65,97.28,97.08,97.21,96.72,97.32,95.61,96.6,96.55,98.04,95.41,97.25,98.64,97.61,98.08,96.8,96.7,95.83,97.7,96.07,96.65,97.74,95.96,95.81,95.91,95.31,95.72,96.73,95.31,95.61,96.48,96.06,95.99,97.59,97.69,96.39,96.91,95.91,95.78,97.58,98.01,96.63,96.54,97.85,95.89,96.6,99.59
102.3,102.3,99.18,99.18,105.88,105.88,112.39,112.39,113.89,113.89,116.03,117,117.61,117.61,105.75,104.73,105.17,103.76,101.73,100.82,106.01,107.69,107.26,109.57,109.77,98.43,101.43,100.88,100.6,99.31,99.32,102.29,102.55,103.28,103.28,103.71,98.85,99.48,99.12,98.27,104,99.65,100.18,100.58,101.44,101.36,101.16,102.04,102.14,102.36,98.76,98.75,102.8,98.9,99.35,99.22,99.65,99.9,99.69,98.46,99.47,99.47,97.16,96.19,100.98,96.1,97.19,96.58,98.85,97.52,97.4,96.98,97.58,98.41,96.85,96.59,97.01,96.29,97.96,97.27,96.95,96.21,96.67,98.26,98.68,98.21,97.02,95.55,95.65,97.15,97.16,97.19,96.76,97.41,95.69,96.67,96.67,98.1,95.48,97.45,98.58,97.73,98.27,97.05,96.76,95.97,97.93,96.17,96.85,97.77,96.18,95.7,95.97,95.33,95.86,96.78,95.33,95.71,96.6,96.21,96,97.69,97.79,96.32,96.95,96.02,95.81,97.66,98.15,96.65,96.68,98,95.81,96.82,99.33
101.44,101.44,98.33,98.33,104.69,104.69,111.64,111.64,112.97,112.97,115.08,116.07,115.9,115.9,105.83,104.6,105.37,103.81,101.57,100.71,105.99,107.62,107.33,109.67,109.68,98.09,100.86,100.66,100.52,98.67,97.54,101.58,101.57,102.34,102.53,102.86,98.58,98.89,98.82,97.73,102.9,98.82,99.65,100.13,100.84,100.76,100.47,100.97,101.38,101.64,98.31,98.3,101.78,97.92,98.56,98.68,98.81,99.23,98.82,97.83,98.93,98.93,96.98,95.98,100.64,95.92,97.17,96.24,98.68,97.18,97.19,96.54,97.18,98.16,96.71,96.5,96.74,95.97,97.93,97.08,96.76,95.94,96.52,97.98,98.39,97.86,96.6,95.43,95.44,97,96.88,96.97,96.32,96.99,95.19,96.24,96.27,97.87,95.26,97.23,98.44,97.41,98.07,96.76,96.36,95.7,97.55,95.78,96.55,97.75,95.63,95.26,95.59,94.76,95.31,96.49,94.76,95.06,96.07,95.44,95.56,97.23,97.19,95.87,96.55,95.88,95.53,97.53,97.94,96.31,96.39,97.75,95.71,96.62,98.98
101.16,101.16,97.55,97.55,103.71,103.71,110.83,110.83,112.4,112.4,114.65,115.36,114.65,114.65,106.15,104.49,105.58,103.73,101.55,100.4,106.43,108.12,108.12,110.55,110.08,97.34,100.28,100.26,100.22,97.95,95.45,101.28,100.56,101.43,101.96,102.62,97.69,98.18,98.34,96.96,102.25,98.27,99.06,99.59,100.65,100.39,100.3,100.44,101.13,101.45,97.98,97.91,101.59,97.17,98,98.29,98.53,98.73,98.26,98.03,99.45,99.45,97.12,96.06,101.59,95.95,97.37,96.41,98.99,97.38,97.34,96.86,97.55,98.67,96.42,96.36,97.08,96.01,97.87,97.01,96.74,95.88,96.53,97.89,98.37,97.79,96.64,95.22,95.41,97.01,96.9,97.22,96.45,97.09,95.3,96.42,96.48,97.93,95.29,97.26,98.64,97.51,98.11,96.7,96.64,95.84,97.75,95.86,96.71,97.84,95.8,95.46,95.6,94.92,95.55,96.55,94.92,95.39,96.21,95.89,95.68,97.35,97.44,96.28,96.9,95.78,95.36,97.56,98.09,96.33,96.28,97.65,95.61,96.61,98.62
100.91,100.91,97.32,97.32,103.09,103.09,110.38,110.38,111.92,111.92,114.03,114.98,113.76,113.76,106.04,104.43,105.38,103.71,101.44,100.25,106.45,108.08,107.95,110.26,109.82,97.31,100.42,100.05,99.95,97.45,94.37,101.37,99.88,101.08,101.44,102.45,97.59,97.95,98.38,96.62,101.77,97.86,99.03,99.66,100.9,100.66,100.3,100.33,101.14,101.3,97.63,97.52,101.39,96.78,97.63,97.77,97.94,98.09,97.47,97.81,99.39,99.39,97.34,96.2,102.01,96.37,97.54,96.64,99.15,97.72,97.5,97.15,97.89,98.88,96.71,96.48,97.47,96.19,97.95,97.12,96.92,96.22,96.59,98.13,98.67,98.38,96.95,95.36,95.52,97.03,97.02,97.12,96.63,97.23,95.56,96.51,96.67,98.06,95.41,97.39,98.5,97.64,98.16,97.02,96.59,95.98,97.87,96.13,96.85,97.8,95.96,95.56,95.89,95.08,95.63,96.79,95.08,95.61,96.41,96.08,95.84,97.52,97.54,96.31,96.92,95.99,95.68,97.44,98.03,96.51,96.64,97.96,95.68,96.66,98.58
100,100,96.72,96.72,102.17,102.17,109.83,109.83,111.15,111.15,112.86,113.66,112.09,112.09,105.5,103.64,105,103.27,101,99.92,106.17,107.46,107.65,110.35,109.32,96.5,99.77,99.62,99.49,96.57,92.66,100.86,98.6,99.62,100.54,101.62,96.63,96.51,97.32,95.69,100.73,96.74,97.8,98.85,99.83,99.61,99.25,99.18,100.01,100.39,96.98,96.81,100.27,95.5,96.69,96.97,96.86,97.12,96.66,97.33,99.22,99.22,97,95.88,102.33,95.92,97.35,96.24,98.97,97.37,97.27,96.9,97.37,98.64,96.54,96.32,97.3,95.98,97.97,96.91,96.5,95.73,96.35,98.04,98.62,98,96.73,94.99,95.17,96.75,96.64,96.87,96.34,96.77,95.2,96.34,96.31,97.8,94.96,97.11,98.32,97.23,97.61,96.67,96.33,95.59,97.64,95.76,96.58,97.53,95.64,95.11,95.44,94.72,95.21,96.5,94.72,95.26,96.11,95.56,95.56,97.16,97.29,95.88,96.72,95.58,95.25,97.39,97.69,96.17,96.18,97.59,95.46,96.46,97.97
100.35,100.35,96.67,96.67,101.79,101.79,109.08,109.08,110.57,110.57,112.38,113.24,111.52,111.52,105.69,103.87,105.2,103.58,100.84,100.24,106.22,107.79,107.65,109.84,109.05,96.68,99.68,99.59,99.4,96.37,92.69,100.92,98.42,99.62,100.43,101.37,96.44,96.83,97.71,95.62,100.48,96.78,98.17,98.89,100.04,100.12,99.72,99.44,100.14,100.4,96.8,96.66,100.34,95.56,96.55,96.84,96.59,96.76,96.21,97.3,99.31,99.31,97.11,95.91,102.54,96.2,97.38,96.51,98.98,97.51,97.42,97.16,97.75,98.81,96.8,96.56,97.43,96.26,98.1,97.37,96.89,96.13,96.74,98.32,98.8,98.36,97.16,95.29,95.5,96.94,96.86,97.2,96.52,97.15,95.7,96.49,96.7,98.02,95.3,97.36,98.47,97.52,97.94,96.94,96.68,95.97,97.85,95.94,96.71,97.81,96,95.36,95.8,95.04,95.54,96.8,95.04,95.47,96.29,96,95.76,97.57,97.49,96.12,96.91,95.94,95.58,97.56,97.9,96.44,96.57,97.85,95.84,96.63,98.5
100.52,100.52,96.69,96.69,101.5,101.5,108.85,108.85,110.16,110.16,112.08,112.9,111.04,111.04,105.3,103.63,104.9,103.29,100.61,100.12,105.99,107.05,107.03,109.1,107.89,96.39,99.51,99.13,99,96.04,92.61,100.86,98.01,99.04,99.91,100.86,96.21,96.72,97.68,95.54,99.85,96.61,98.05,98.7,99.98,100.12,99.69,99.15,100.08,100.05,96.7,96.5,100.21,95.4,96.42,96.49,96.06,96.19,95.92,96.87,99.09,99.09,96.95,95.85,102.7,96.21,97.27,96.49,98.92,97.4,97.18,97.11,97.6,98.76,96.64,96.46,97.36,96.1,98.06,97.19,96.73,95.94,96.39,98.13,98.65,98.16,96.92,95.2,95.33,96.96,96.82,97.12,96.44,96.93,95.6,96.51,96.57,98,95.22,97.41,98.52,97.43,97.82,96.85,96.53,95.83,97.63,95.86,96.66,97.68,95.9,95.23,95.63,94.83,95.38,96.74,94.83,95.34,96.19,95.85,95.53,97.39,97.32,96.02,96.71,95.81,95.41,97.38,97.86,96.26,96.32,97.76,95.63,96.5,98.58
100.74,100.74,96.93,96.93,101.67,101.67,108.71,108.71,109.81,109.81,111.91,112.59,110.8,110.8,105.04,103.46,104.68,103.09,100.48,100.29,105.66,106.63,106.63,108.51,107.4,96.5,99.32,99.07,98.95,96.1,93.08,100.77,98.03,99.07,99.64,100.76,96.23,96.9,97.87,95.7,99.81,96.65,97.92,98.74,99.83,100.16,99.9,99.16,99.82,99.81,96.6,96.34,99.91,95.39,96.3,96.33,95.59,95.83,95.48,96.51,98.96,98.96,97.14,95.92,102.77,96.19,97.33,96.6,98.9,97.44,97.26,97.09,97.68,98.7,96.52,96.38,97.45,96.11,97.86,97.2,96.67,95.97,96.34,98.08,98.6,98.1,96.8,95.16,95.36,96.82,96.86,97.14,96.44,97.03,95.65,96.47,96.64,98.07,95.38,97.46,98.45,97.52,98.03,96.92,96.65,95.81,97.8,95.99,96.82,97.75,95.94,95.55,95.96,95.13,95.64,96.83,95.13,95.45,96.42,96.04,95.68,97.66,97.53,96.17,96.97,95.8,95.38,97.47,97.83,96.3,96.34,97.8,95.75,96.54,98.84
100.85,100.85,97.18,97.18,101.82,101.82,108.66,108.66,109.91,109.91,111.72,112.52,111.16,111.16,104.88,103.47,104.45,103.04,100.75,100.25,105.43,106.67,106.2,108.25,107.34,96.84,99.61,99.26,99.25,96.53,94.11,101.01,98.43,99.48,100.03,100.95,96.36,97.06,97.71,95.91,100.19,96.91,98.09,98.75,99.74,100.06,99.76,99.25,99.88,99.89,96.73,96.56,100.04,95.87,96.66,96.62,96.06,96.19,96.06,96.66,98.77,98.77,97.16,95.97,102.3,96.2,97.37,96.58,98.89,97.45,97.32,97.14,97.59,98.67,96.62,96.42,97.3,96.23,98.02,97.22,96.75,96,96.41,98.01,98.69,98.22,96.81,95.25,95.5,96.9,96.85,97.2,96.45,96.99,95.64,96.48,96.57,98.06,95.34,97.49,98.43,97.51,97.85,97.03,96.61,95.83,97.83,95.96,96.7,97.84,95.91,95.59,95.91,95,95.66,96.91,95,95.45,96.35,96.03,95.74,97.52,97.37,96.16,96.89,95.89,95.51,97.53,97.97,96.39,96.42,97.88,95.7,96.62,98.93
101.06,101.06,97.53,97.53,102.18,102.18,108.78,108.78,109.99,109.99,111.8,112.59,111.67,111.67,104.77,103.63,104.3,103,100.77,100.46,105.2,106.51,106.02,108.06,107.23,97.19,99.86,99.56,99.52,97.12,95.32,101.2,98.97,100.04,100.45,101.32,96.9,97.52,98.14,96.39,100.67,97.44,98.45,99.04,100.06,100.28,100.06,99.79,100.23,100.16,97.23,96.92,100.52,96.38,97.17,97.06,96.75,96.86,96.65,97,98.85,98.85,97.14,95.92,102.07,96.05,97.21,96.43,98.79,97.3,97.18,96.97,97.51,98.39,96.64,96.44,97.24,96.16,98.04,97.21,96.74,95.98,96.39,97.96,98.73,98.19,96.76,95.2,95.43,96.91,96.8,97.12,96.37,96.88,95.69,96.42,96.63,98.13,95.32,97.38,98.38,97.5,97.86,97,96.53,95.85,97.78,95.93,96.78,97.75,95.91,95.57,95.86,95.03,95.66,96.91,95.03,95.38,96.32,96.01,95.71,97.52,97.31,96.03,96.86,95.83,95.38,97.49,97.81,96.25,96.38,97.76,95.72,96.65,99.12
100.61,100.61,97.49,97.49,101.79,101.79,108.29,108.29,109.58,109.58,111.1,111.89,110.96,110.96,104.43,103.42,104.03,102.61,100.8,100.29,104.88,106.15,105.86,107.94,107.12,96.99,99.71,99.42,99.45,97.27,95.72,100.93,99.02,99.9,100.4,101.18,96.99,97.56,98.05,96.59,100.62,97.55,98.36,99.01,99.93,99.91,99.69,99.81,100.24,100.29,97.18,97.04,100.6,96.29,97.17,97.2,96.96,97.18,96.96,96.91,98.56,98.56,96.77,95.68,101.55,95.71,96.9,96,98.48,97.03,96.87,96.57,96.99,97.98,96.37,96.18,96.75,95.89,97.91,96.96,96.25,95.52,96.08,97.73,98.49,97.91,96.36,94.91,95.1,96.72,96.57,96.97,96.12,96.5,95.21,96.13,96.25,97.82,94.92,97.19,98.16,97.22,97.51,96.65,96.25,95.41,97.46,95.49,96.37,97.36,95.42,95.33,95.55,94.68,95.27,96.7,94.68,95.14,96.08,95.59,95.36,97.26,97.06,95.67,96.61,95.64,95.09,97.27,97.69,96.03,96.08,97.5,95.41,96.39,98.85
100.23,100.23,97.18,97.18,101.62,101.62,107.97,107.97,109.08,109.08,110.62,111.33,110.42,110.42,104.4,103.31,104.06,102.7,100.81,100.34,104.79,105.99,105.88,107.97,106.99,96.93,99.59,99.34,99.45,97.23,95.85,100.76,98.77,99.65,100.23,100.99,96.79,97.32,97.91,96.39,100.39,97.33,98.05,98.65,99.6,99.49,99.39,99.54,99.98,99.99,97,96.91,100.38,96.11,97.03,97.18,96.99,97.19,96.97,96.83,98.38,98.38,96.69,95.45,101.34,95.53,96.71,95.82,98.37,96.8,96.67,96.26,96.65,97.75,96.18,96.02,96.49,95.66,97.73,96.72,95.96,95.27,95.81,97.53,98.31,97.6,96.17,94.65,94.86,96.57,96.44,96.78,95.85,96.28,94.88,95.85,95.97,97.79,94.74,97.14,98.11,97.15,97.45,96.37,96.01,95.23,97.33,95.29,96.23,97.23,95.36,95.09,95.29,94.42,95.01,96.41,94.42,94.8,95.86,95.33,95.11,97.06,96.85,95.41,96.44,95.45,94.94,97.16,97.62,95.89,95.91,97.44,95.17,96.28,98.63
99.41,99.41,96.81,96.81,100.62,100.62,107.26,107.26,108.21,108.21,109.32,110.11,109.01,109.01,103.66,102.46,103.3,101.91,100.54,99.89,104.27,105.44,105.83,108.31,106.87,96.39,98.92,98.94,99.24,96.97,95.15,100.23,97.85,98.56,99.64,100.36,96.53,96.63,97.09,95.97,99.5,96.72,97.36,97.99,99.13,98.43,98.39,98.85,99.33,99.59,96.58,96.59,99.95,95.31,96.55,96.95,96.99,97.16,96.85,96.86,98.12,98.12,96.34,95,101.25,95.14,96.3,95.19,98.04,96.47,96.37,95.74,96.09,97.25,95.71,95.66,96.07,95.27,97.41,96.36,95.29,94.55,95.47,97.12,97.95,97.12,95.56,94.15,94.21,96.2,95.98,96.38,95.27,95.55,94.13,95.29,95.45,97.32,94.16,96.82,97.85,96.8,96.99,95.87,95.62,94.64,97.06,94.81,95.82,96.84,94.77,94.65,94.86,93.93,94.46,96.11,93.93,94.4,95.57,94.8,94.64,96.73,96.31,94.93,95.98,95,94.38,96.9,97.38,95.36,95.41,96.99,94.78,95.96,98.06
90.98,90.98,89.94,89.94,90.53,90.53,101.09,101.09,101.53,101.53,100.07,100.6,96.25,96.25,99.38,96.51,99.83,97.48,98.4,96.64,103.3,103.48,109.12,114.16,107.24,89.85,92.75,94.32,96.04,91.11,84,95.01,87.16,87.25,92.23,93.58,90.79,88.34,90.55,89.51,89.74,89.57,88.94,91.01,93.89,89.16,89.65,91.75,92.84,94.53,90.71,91.69,94.37,85.51,89.79,92.71,93.46,93.8,92.41,97.44,99.44,99.44,96.3,94.8,103.82,95.3,96.5,95.4,98.23,96.42,96.33,95.97,96.25,97.36,95.71,95.58,96.34,95.24,97.42,96.32,95.36,94.55,95.36,97.17,97.94,97.1,95.44,94.04,94.14,96.02,95.85,96.27,95.25,95.51,94.08,95.26,95.39,97.36,94.1,96.79,97.86,96.76,97.15,95.81,95.54,94.52,96.97,94.74,95.79,96.81,94.66,94.58,94.81,93.85,94.43,96.07,93.85,94.22,95.36,94.66,94.51,96.72,96.26,94.82,95.98,94.9,94.3,96.9,97.38,95.39,95.38,97.04,94.22,95.78,91.52
95.79,95.79,93.11,93.11,95.31,95.31,103.67,103.67,104.44,104.44,104.36,104.95,102.05,102.05,102.36,100.87,102.26,100.77,100.04,99.11,104.13,105.25,107.42,110.57,107.18,93.27,95.82,96.57,97.53,93.76,89.98,97.23,92.2,93.06,95.48,96.55,93.14,92.64,94.25,92.33,93.98,93.13,93.11,94.24,96.23,94.2,94.41,95.35,95.9,96.37,93.39,94.06,97,90.63,93.14,94.55,94.98,95.19,94.29,96.96,98.4,98.4,96.4,94.98,101.86,95.15,96.36,95.32,98.02,96.36,96.27,95.78,96.11,97.2,95.74,95.65,96.09,95.3,97.43,96.37,95.42,94.6,95.32,97.12,97.94,97.12,95.5,94.16,94.32,96.1,95.98,96.43,95.33,95.57,94.34,95.31,95.52,97.49,94.28,96.92,97.82,96.82,97.14,96.06,95.57,94.69,97.06,94.89,95.84,96.83,94.78,94.69,94.97,93.96,94.52,96.15,93.96,94.31,95.47,94.85,94.56,96.73,96.3,94.82,95.98,95.02,94.42,96.94,97.37,95.49,95.57,97.22,93.89,95.6,94.96
99.26,99.26,96.46,96.46,99.56,99.56,106.1,106.1,107.04,107.04,108.15,108.75,107.6,107.6,103.16,102.66,102.75,102.03,100.53,100.25,103.58,105.41,105.17,107.5,106.29,96.41,98.56,98.55,98.81,96.45,95.42,99.58,96.97,98.11,98.66,99.4,95.96,96.69,97.16,95.47,98.28,96.66,97,97.41,98.76,98.29,98.32,98.79,98.86,98.68,96.41,96.27,99.59,95.13,96.36,96.61,96.73,96.97,96.65,97.29,98.39,98.39,96.78,95.5,101.26,95.66,96.73,95.93,98.26,96.8,96.65,96.44,96.81,97.66,96.25,96.09,96.47,95.83,97.82,96.89,96.19,95.33,95.79,97.57,98.37,97.75,96.14,94.78,95.07,96.44,96.42,96.89,95.77,96.23,95.35,95.83,96.11,97.91,94.88,97.27,98.13,97.11,97.55,96.74,96.08,95.35,97.34,95.45,96.32,97.23,95.42,95.34,95.62,94.6,95.2,96.76,94.6,94.91,95.94,95.58,95.12,97.2,96.75,95.31,96.47,95.63,94.93,97.22,97.53,95.99,96.09,97.6,94.74,96.11,98.12
100.29,100.29,97.63,97.63,101.23,101.23,106.84,106.84,107.79,107.79,109.11,109.82,109.26,109.26,103.36,103.05,102.85,102.33,100.66,100.54,103.26,105.08,104.27,106.28,105.72,97.5,99.57,99.34,99.5,97.63,97.51,100.51,99.12,100.08,100.21,100.68,97.18,98.1,98.24,96.91,100.29,97.94,98.4,98.74,99.62,99.58,99.58,99.93,100.01,99.78,97.62,97.29,100.54,96.77,97.64,97.52,97.62,97.82,97.71,97.46,98.26,98.26,97.01,95.72,100.83,95.69,96.81,96.14,98.34,96.92,96.72,96.55,96.96,97.73,96.29,96.15,96.56,95.92,97.89,96.91,96.34,95.45,95.86,97.57,98.43,97.81,96.23,94.93,95.22,96.59,96.56,97.01,95.9,96.35,95.56,95.97,96.29,98.06,95.08,97.42,98.2,97.27,97.63,96.93,96.21,95.5,97.47,95.61,96.41,97.4,95.57,95.55,95.8,94.73,95.41,96.91,94.73,95.04,96.06,95.75,95.26,97.32,96.79,95.4,96.54,95.87,95.05,97.35,97.61,96.1,96.21,97.74,95.32,96.36,99.03
100.63,100.63,98.05,98.05,101.6,101.6,106.96,106.96,107.89,107.89,109.32,109.92,109.57,109.57,103.35,103.06,102.82,102.41,100.77,100.57,103.19,105.05,104.08,106.1,105.56,97.79,99.87,99.56,99.66,97.96,98,100.74,99.5,100.64,100.5,100.93,97.59,98.49,98.51,97.25,100.66,98.3,98.78,99.01,99.81,99.95,99.87,100.3,100.31,100.07,97.84,97.59,100.86,97.19,97.97,97.78,97.93,98.14,98.02,97.45,98.23,98.23,97.11,95.76,100.53,95.78,96.85,96.21,98.33,97,96.75,96.58,97.04,97.76,96.33,96.25,96.56,95.95,97.92,97.04,96.38,95.51,95.92,97.6,98.5,97.86,96.29,95.01,95.31,96.62,96.6,97.07,95.93,96.36,95.7,95.99,96.35,98.13,95.16,97.49,98.18,97.28,97.67,97.08,96.25,95.53,97.44,95.68,96.45,97.44,95.64,95.59,95.9,94.86,95.46,97.07,94.86,95.12,96.09,95.86,95.32,97.38,96.85,95.44,96.64,95.99,95.18,97.45,97.68,96.25,96.33,97.86,95.53,96.41,99.21
100.62,100.62,98.05,98.05,101.47,101.47,106.65,106.65,107.58,107.58,108.95,109.64,109.28,109.28,103.28,103.04,102.77,102.37,100.74,100.55,103.09,104.99,103.98,105.93,105.42,97.79,99.86,99.55,99.63,98.03,98.11,100.68,99.61,100.66,100.56,100.98,97.66,98.57,98.62,97.33,100.69,98.35,98.93,99.03,99.86,100,99.96,100.34,100.41,100.11,97.91,97.67,100.84,97.36,98.04,97.87,98.04,98.26,98.11,97.4,98.16,98.16,97.09,95.74,100.33,95.73,96.75,96.23,98.22,96.98,96.71,96.55,97,97.7,96.33,96.15,96.55,95.94,97.99,96.99,96.4,95.54,95.81,97.53,98.51,97.86,96.28,94.92,95.31,96.53,96.54,97.11,95.81,96.29,95.73,96,96.36,98.13,95.17,97.49,98.13,97.25,97.63,97.1,96.22,95.54,97.43,95.67,96.42,97.35,95.64,95.59,95.91,94.77,95.47,97.01,94.77,95.1,96.04,95.85,95.27,97.34,96.79,95.4,96.61,95.97,95.1,97.39,97.6,96.13,96.29,97.8,95.43,96.34,99.24
100.9,100.9,98.36,98.36,101.82,101.82,106.86,106.86,107.67,107.67,109.21,109.82,109.62,109.62,103.37,103.18,102.91,102.5,100.83,100.7,103.12,105.04,104.13,105.9,105.62,98.13,100.2,99.84,99.86,98.41,98.59,100.94,100.08,101.14,100.89,101.37,98,98.92,98.87,97.6,101.08,98.71,99.18,99.35,100.18,100.33,100.28,100.64,100.67,100.36,98.33,97.97,101.15,97.72,98.4,98.3,98.38,98.64,98.47,97.62,98.36,98.36,97.15,95.79,100.36,95.76,96.83,96.21,98.25,97.04,96.75,96.65,97.17,97.77,96.36,96.31,96.62,96.05,98.03,97.12,96.53,95.65,95.94,97.63,98.61,98.02,96.42,95.03,95.41,96.61,96.64,97.15,95.99,96.35,95.88,96.04,96.46,98.17,95.19,97.57,98.22,97.27,97.72,97.24,96.35,95.72,97.53,95.83,96.58,97.46,95.78,95.78,96.01,94.9,95.61,97.2,94.9,95.25,96.16,96.01,95.4,97.43,97,95.54,96.74,96.14,95.26,97.48,97.72,96.35,96.47,97.97,95.57,96.42,99.57
100.92,100.92,98.71,98.71,102,102,107.03,107.03,107.87,107.87,109.32,109.91,109.94,109.94,103.2,103.05,102.61,102.31,100.86,100.56,102.93,104.79,103.74,105.7,105.28,98.39,100.3,99.98,99.93,98.62,98.83,101.11,100.33,101.35,101.18,101.49,98.26,99.11,98.87,97.84,101.33,98.96,99.39,99.5,100.3,100.39,100.3,100.81,100.81,100.65,98.55,98.33,101.34,98.03,98.61,98.51,98.7,98.76,98.78,97.86,98.38,98.38,97.37,95.98,100.34,95.94,96.87,96.31,98.46,97.13,96.92,96.84,97.3,97.89,96.51,96.32,96.78,96.19,98.05,97.07,96.64,95.68,96.05,97.77,98.76,98.16,96.52,95.2,95.62,96.79,96.64,97.29,95.99,96.41,96.04,96.29,96.62,98.36,95.57,97.68,98.35,97.53,97.82,97.43,96.54,95.91,97.77,96.03,96.7,97.62,96.06,95.89,96.09,95.05,95.71,97.28,95.05,95.27,96.23,96.09,95.46,97.46,96.97,95.59,96.78,96.25,95.22,97.47,97.67,96.27,96.56,97.97,95.71,96.6,99.6
101.14,101.14,98.83,98.83,102.15,102.15,106.82,106.82,107.73,107.73,109.1,109.56,109.63,109.63,103.02,103.08,102.64,102.3,100.84,100.62,102.76,104.57,103.54,105.39,105.06,98.43,100.55,100.06,100.04,98.8,99.2,101.18,100.46,101.52,101.16,101.52,98.42,99.32,99.11,98.09,101.47,99.17,99.56,99.75,100.44,100.57,100.48,100.93,100.97,100.66,98.56,98.17,101.41,98.03,98.61,98.56,98.63,98.8,98.73,97.86,98.32,98.32,97.38,96.03,100.22,96.07,97.02,96.48,98.55,97.33,97.01,96.93,97.44,97.94,96.54,96.36,96.82,96.27,98.09,97.27,96.66,95.83,96.07,97.78,98.73,98.18,96.61,95.37,95.71,96.78,96.74,97.44,96.02,96.53,96.23,96.29,96.75,98.31,95.49,97.7,98.32,97.45,97.82,97.44,96.52,95.93,97.67,96.11,96.79,97.63,96.02,96.03,96.18,95.08,95.8,97.35,95.08,95.39,96.32,96.2,95.51,97.56,96.98,95.6,96.78,96.37,95.4,97.56,97.73,96.42,96.67,98.13,95.88,96.55,99.77
101.01,101.01,98.95,98.95,102.05,102.05,106.57,106.57,107.34,107.34,108.8,109.36,109.38,109.38,102.91,102.96,102.36,102.28,100.74,100.58,102.66,104.48,103.28,105.18,104.75,98.5,100.43,99.9,99.91,98.71,99.12,101,100.5,101.48,101.1,101.4,98.44,99.39,99.23,98.15,101.44,99.24,99.62,99.64,100.36,100.57,100.54,100.99,100.93,100.65,98.78,98.42,101.37,98.36,98.9,98.66,98.84,98.97,98.91,98,98.38,98.38,97.49,96.11,100.25,96.03,96.96,96.55,98.44,97.23,96.98,96.94,97.37,97.89,96.58,96.42,96.86,96.36,98.15,97.32,96.82,95.95,96.16,97.79,98.82,98.26,96.67,95.43,95.87,96.81,96.88,97.5,96.19,96.65,96.4,96.38,96.77,98.36,95.63,97.84,98.25,97.46,97.97,97.57,96.62,96.02,97.72,96.19,96.74,97.62,96.08,96.1,96.39,95.27,95.95,97.44,95.27,95.51,96.46,96.26,95.66,97.62,97.08,95.67,96.87,96.58,95.62,97.73,97.86,96.65,96.85,98.34,95.95,96.63,99.78
100.71,100.71,98.6,98.6,101.48,101.48,105.72,105.72,106.47,106.47,107.72,108.19,107.95,107.95,102.55,102.51,102.1,102.09,100.6,100.49,102.16,103.98,102.95,104.62,104.09,98.27,100.06,99.77,99.86,98.47,98.71,100.66,100.06,101.02,100.76,101.08,98.19,99.1,98.99,97.97,100.88,98.8,99.25,99.25,99.94,100.11,100.02,100.52,100.49,100.15,98.46,98.23,100.93,97.86,98.57,98.4,98.54,98.61,98.63,97.63,97.97,97.97,97.35,96.02,99.78,95.96,96.85,96.33,98.13,96.99,96.81,96.66,97.03,97.54,96.47,96.4,96.45,96.27,98.13,97.17,96.57,95.75,96,97.64,98.57,97.99,96.38,95.24,95.59,96.81,96.81,97.35,95.99,96.32,96.06,96.12,96.55,98.35,95.49,97.82,98.23,97.47,97.82,97.38,96.46,95.84,97.64,95.91,96.65,97.47,95.92,95.97,96.29,95.06,95.77,97.29,95.06,95.31,96.3,96.14,95.47,97.56,96.8,95.46,96.75,96.31,95.25,97.57,97.71,96.28,96.55,97.95,95.77,96.61,99.45
100.87,100.87,98.6,98.6,101.29,101.29,105.27,105.27,105.99,105.99,107.2,107.55,107.41,107.41,102.43,102.49,102,102,100.53,100.4,102.03,103.8,102.67,104.27,103.91,98.3,100.21,99.84,99.84,98.59,99,100.8,100.28,101.13,100.8,101.16,98.24,99.15,99.04,98,100.99,98.94,99.31,99.34,100.08,100.3,100.15,100.57,100.68,100.33,98.38,98.12,100.93,97.97,98.59,98.39,98.46,98.59,98.62,97.42,97.76,97.76,97.24,95.77,99.6,95.64,96.55,96.11,97.82,96.7,96.47,96.22,96.76,97.23,96.31,96.22,96.22,96.05,97.94,97.03,96.53,95.65,95.8,97.42,98.47,97.92,96.24,95.05,95.54,96.64,96.7,97.32,95.85,96.24,96.14,96.12,96.59,98.31,95.33,97.53,98.07,97.24,97.66,97.25,96.28,95.67,97.44,95.79,96.48,97.29,95.73,95.86,96.03,94.84,95.55,97.15,94.84,95.06,96.16,95.95,95.19,97.32,96.7,95.29,96.59,96.13,95.17,97.37,97.5,96.19,96.35,97.81,95.53,96.41,99.22
101.47,101.47,99.39,99.39,102.49,102.49,106.43,106.43,107.38,107.38,108.75,109.21,109.45,109.45,102.77,102.83,102.29,102.32,100.72,100.54,102.48,104.28,103.2,104.87,104.57,98.95,100.88,100.4,100.25,99.21,99.72,101.43,101.14,102.28,101.76,102.03,98.97,99.85,99.51,98.53,101.97,99.61,100.15,100.11,100.8,101.1,100.88,101.34,101.21,101.03,99.08,98.75,101.66,98.91,99.3,99.1,99.19,99.3,99.33,98.04,98.5,98.5,97.57,96.27,100.06,96.29,97.01,96.73,98.43,97.42,97.06,97.09,97.75,98.03,96.8,96.74,97.04,96.71,98.34,97.52,97.17,96.33,96.34,97.96,98.89,98.5,96.94,95.7,96.06,96.91,97.06,97.72,96.36,96.81,96.83,96.61,97.12,98.63,96,97.94,98.37,97.67,98.15,97.95,96.79,96.29,97.95,96.47,97.02,97.85,96.44,96.49,96.83,95.78,96.35,97.85,95.78,95.91,96.82,96.71,96.12,97.97,97.42,96.09,97.36,96.72,95.68,97.72,97.83,96.6,96.92,98.32,96.11,96.67,100.3
102.39,102.39,100.31,100.31,103.5,103.5,107.57,107.57,108.8,108.8,110.2,110.92,111.33,111.33,103.15,103.22,102.42,102.46,100.78,100.61,102.62,104.7,103.6,105.33,105.38,99.47,101.77,100.86,100.54,100.05,100.49,102.04,101.96,103.04,102.48,102.84,99.74,100.77,100.04,99.23,102.86,100.38,100.97,101.07,101.81,101.79,101.83,102.4,102.34,101.79,99.8,99.38,102.66,99.66,99.9,99.88,99.9,100.05,100.28,98.97,99.18,99.18,98.29,96.77,100.4,96.99,97.75,97.54,99.1,98.1,97.64,98.04,98.51,98.79,97.12,97.05,97.76,97.24,98.63,97.95,97.95,96.86,96.94,98.24,99.58,99.06,97.56,96.56,97.03,97.8,97.7,98.44,97.2,97.6,97.9,97.53,97.97,98.99,96.87,98.39,98.91,98.12,98.81,98.42,97.41,97.26,98.44,97.33,97.59,98.42,97.38,96.93,97.28,96.17,96.77,98.27,96.17,96.45,97,97.43,96.57,98.25,97.9,96.45,97.83,97.25,96.33,98.23,98.2,96.99,97.46,98.71,96.74,97.08,100.97
102.79,102.79,100.83,100.83,104.79,104.79,109.96,109.96,111,111,112.51,113,114.02,114.02,103.6,103.62,103.35,103,101.36,100.99,103.84,105.23,104.66,106.85,106.31,99.68,101.9,101.28,100.67,100.31,100.94,102.91,102.37,103.61,103.14,103.23,100.16,101.16,100.25,99.83,103.8,101.32,101.64,101.53,101.94,102.49,101.77,103.04,102.62,102.39,100.31,99.67,103.35,100.27,100.71,100.4,100.5,100.59,100.65,99.89,100.21,100.21,98.98,97.44,101.38,97.78,98.56,98.08,100.03,98.89,98.62,99.18,99.53,99.77,98,98.23,98.68,98.16,99.61,98.83,98.8,98.06,98.21,99.43,100.71,100.12,98.91,97.4,97.65,98.2,98.18,98.98,97.72,98.54,98.35,98.33,98.9,99.79,97.81,99.22,99.39,98.66,99.28,99.48,98.26,98.05,99.27,98.08,98.63,99.44,98.19,98.04,98.22,97.68,97.98,99.49,97.68,98.2,98.41,98.69,98.01,99.45,98.87,97.63,98.53,98.51,97.54,99.16,98.92,98.09,98.74,100.05,97.54,98.05,101.31
101.21,101.21,99.34,99.34,101.96,101.96,105.83,105.83,106.58,106.58,107.83,108.47,108.31,108.31,102.55,102.75,102.09,102.19,100.79,100.45,102.08,103.97,102.93,104.54,104.29,98.89,100.74,100.29,100.12,99.14,99.57,101.25,100.77,101.82,101.38,101.67,99.01,99.86,99.51,98.57,101.7,99.57,100.15,100.04,100.67,100.9,100.64,101.25,101.06,100.96,99.28,98.99,101.68,98.92,99.47,99.36,99.4,99.49,99.46,98.38,98.84,98.84,97.91,96.57,100.18,96.61,97.54,97.04,98.61,97.68,97.51,97.45,98,98.32,96.93,96.82,97.4,96.79,98.43,97.67,97.35,96.53,96.44,98.17,99.07,98.44,97.16,95.97,96.39,97.27,97.48,97.77,96.6,97.14,97.07,96.93,97.47,98.59,96.15,98.24,98.54,97.71,98.24,98.12,96.93,96.49,97.92,96.7,97.28,97.89,96.58,96.8,97.15,96.12,96.75,98.07,96.12,96.22,96.97,96.97,96.31,98.16,97.54,96.3,97.47,97.1,96.1,98.03,98.06,96.99,97.23,98.48,96.57,97.02,100.16
102.5,102.5,100.67,100.67,104.07,104.07,107.84,107.84,109.23,109.23,110.2,111.13,111.56,111.56,103.28,103.83,102.56,102.57,101.22,101.15,103.16,105.07,103.96,105.03,105.6,100.28,102.13,101.65,100.9,100.58,101.42,102.65,102.41,103.64,103.07,103.23,100.46,101.27,100.62,99.66,103.26,101,101.63,101.49,101.91,102.58,102.3,102.7,102.75,102.49,100.27,99.85,102.96,100.49,100.5,100.21,100.68,100.46,100.45,99.21,99.95,99.95,99.17,97.79,101.09,97.79,98.51,98.45,99.95,99.01,98.65,98.8,99.62,99.72,97.88,97.69,99.02,97.57,99.32,98.66,98.7,97.86,97.55,98.84,99.93,99.64,98.42,97.2,97.8,98.14,98.19,98.78,97.73,98.11,98.73,98.03,98.72,99.56,97.46,98.6,98.95,98.49,99.15,99.12,97.98,97.82,98.72,97.76,98.33,99.02,98.06,97.96,98.3,97.17,97.75,98.92,97.17,97.24,98.09,98.37,97.39,99.02,98.63,97.56,98.32,97.93,97.11,98.63,98.56,97.71,98.14,99.2,97.31,97.73,101.47
101.95,101.95,100.27,100.27,103.32,103.32,107.04,107.04,107.66,107.66,108.91,109.65,110,110,102.67,102.65,102.24,102.09,100.56,100.47,102.58,104.19,103.11,104.6,104.43,99.45,101.29,100.66,100.4,99.79,100.35,101.74,101.38,102.58,101.99,102.41,99.8,100.49,100.05,99.2,102.3,100.19,100.81,100.61,101.53,101.63,101.47,101.78,101.9,101.63,99.74,99.49,102.22,99.6,99.98,99.98,100,100.08,100.02,99.28,99.53,99.53,98.92,97.53,100.81,97.68,98.49,98.31,99.17,98.7,98.43,98.75,99.14,99.21,97.65,97.45,98.57,97.62,99.12,98.4,98.2,97.62,97.54,98.85,99.81,99.29,98.03,97.14,97.34,98.04,98.19,98.88,97.31,98,98.5,97.77,98.25,99.15,97.27,98.51,98.84,98.43,98.7,98.93,98.12,97.58,98.56,97.55,97.83,98.43,97.88,97.77,98.11,97.09,97.78,98.8,97.09,97.28,97.96,97.98,97.44,99.06,98.39,97.41,98.4,97.83,96.94,98.44,98.44,97.4,98.02,98.88,97.35,97.72,100.51
100.85,100.85,99.18,99.18,101.61,101.61,104.9,104.9,105.52,105.52,106.52,106.84,106.75,106.75,101.89,102,101.52,101.61,100.55,100.43,101.73,103.21,102.31,103.72,103.34,98.69,100.06,99.85,99.66,98.88,99.12,100.56,100.02,100.83,100.59,100.9,98.78,99.3,99.3,98.49,100.56,99.26,99.53,99.7,100.09,100.24,100.07,100.4,100.71,100.6,99.04,98.92,100.88,98.52,99.1,99.13,99.37,99.25,99.25,98.68,98.97,98.97,98.23,97.14,100.26,97.06,97.89,97.54,98.8,98.03,97.76,97.87,98.1,98.53,97.31,97.15,97.8,97.14,98.78,98,97.71,96.86,97.01,98.44,99.19,98.78,97.5,96.66,97.1,97.77,97.76,98.28,97.14,97.64,97.76,97.29,97.86,99,96.8,98.57,98.8,98.24,98.66,98.51,97.43,97.06,98.35,97.17,97.73,98.11,97.26,97.15,97.37,96.53,97.06,98.34,96.53,96.59,97.29,97.61,96.56,98.39,97.83,96.7,97.59,97.41,96.47,98.25,98.3,97.24,97.7,98.84,96.83,97.38,99.8
100.94,100.94,99.15,99.15,101.22,101.22,104.08,104.08,104.69,104.69,105.49,105.84,105.75,105.75,101.64,101.9,101.46,101.56,100.46,100.42,101.35,102.83,101.92,103.03,102.85,98.76,100.12,99.83,99.64,98.92,99.28,100.56,100,100.77,100.52,100.72,98.79,99.62,99.46,98.69,100.5,99.37,99.76,99.68,100.23,100.36,100.24,100.53,100.64,100.34,99.05,98.93,100.77,98.76,99.17,99.1,99.22,99.14,99.25,98.68,98.97,98.97,98.47,97.42,100.23,97.4,97.97,97.89,98.96,98.23,97.98,98.16,98.55,98.79,97.79,97.6,98.01,97.56,98.98,98.3,98.13,97.48,97.32,98.73,99.42,99.01,97.88,97.03,97.39,97.98,98.11,98.46,97.42,97.92,98.06,97.59,98.13,99.17,97.11,98.72,99,98.44,98.9,98.88,97.72,97.43,98.47,97.48,97.91,98.37,97.52,97.43,97.81,96.84,97.4,98.59,96.84,96.96,97.66,97.85,96.98,98.58,98.12,97.01,97.97,97.78,96.92,98.44,98.49,97.67,97.94,98.96,97.12,97.66,99.88
99.88,99.88,98.46,98.46,100.2,100.2,103.06,103.06,103.45,103.45,103.97,104.21,104.05,104.05,101.23,101.09,100.99,100.88,100.2,99.96,101,102.12,101.71,103.06,102.2,98.05,99.3,99.25,99.32,98.33,98.14,99.85,98.99,99.46,99.65,99.85,98.05,98.46,98.53,97.97,99.58,98.36,98.62,98.79,99.24,98.79,98.94,99.28,99.53,99.58,98.42,98.35,99.86,97.57,98.4,98.49,98.8,98.78,98.69,98.34,98.51,98.51,98.04,97.08,99.77,96.86,97.57,97.21,98.54,97.79,97.6,97.43,97.62,98.01,97.37,97.25,97.47,97.21,98.56,97.83,97.35,96.8,96.93,98.24,98.93,98.38,97.19,96.51,96.81,97.64,97.63,97.96,96.99,97.19,97.19,97.13,97.48,98.78,96.72,98.44,98.63,98.24,98.34,98.31,97.43,96.96,98.27,97.05,97.59,98.03,97.05,97,97.24,96.5,96.9,98.08,96.5,96.55,97.27,97.17,96.58,98.04,97.54,96.57,97.45,97.47,96.62,98.22,98.34,97.4,97.63,98.48,96.82,97.48,98.76
98.91,98.91,97.74,97.74,99.02,99.02,101.8,101.8,102.06,102.06,102.05,102.16,102.01,102.01,100.31,99.85,100.23,99.69,99.71,99.37,100.68,101.13,101.45,103.08,101.46,97.16,98.17,98.48,98.82,97.59,96.5,98.97,97.59,97.58,98.63,98.74,97.17,96.94,97.15,97.25,98.29,97.14,97.26,97.79,98.17,96.94,97.25,97.68,98.17,98.79,97.59,97.69,98.68,95.95,97.29,97.84,98.22,98.23,97.98,98.38,98.62,98.62,98.08,97.3,99.87,97.12,97.67,97.04,98.58,97.81,97.79,97.37,97.34,97.8,97.59,97.63,97.71,97.52,98.59,97.85,97.14,96.81,97.36,98.29,98.85,98.3,97.4,96.79,96.93,97.8,97.6,97.92,97.11,96.99,96.84,97.29,97.46,98.52,96.88,98.42,98.52,98.2,97.99,97.92,97.49,97.19,98.45,97.26,97.74,97.99,97.13,97.19,97.25,96.76,97.07,97.98,96.76,97,97.53,97.2,97.05,97.97,97.61,96.95,97.59,97.57,96.9,98.33,98.41,97.47,97.66,98.19,96.93,97.78,97.19
54.38,54.38,58.08,58.08,52.63,52.63,72.44,72.44,71.12,71.12,61.36,60.58,50.14,50.14,73.5,57.59,76.86,67.93,82.53,75.24,86.06,74.51,91.23,124.19,71.71,54.16,59.83,69.67,81.5,62.51,41.09,69.44,53.43,44.58,65.77,65.99,56.1,49.02,59.29,62,58.82,52.51,50.37,59.98,58.41,42.21,47.48,54.66,60.74,69,62.38,65.89,66.75,36.2,57.3,65.63,72.6,74.77,68.57,77.62,74.56,74.56,73.35,66.57,82.35,64.01,68.11,59.71,77.57,69.87,70.95,61.49,57.63,64.22,72.49,73.69,66.06,71.94,82.15,73.32,60.21,58.31,69.15,76.11,80.36,72.5,63.81,60.89,60.69,72.97,70.83,73.55,63.65,57.94,54.32,64.28,65.59,78.71,62.21,79.64,79.21,77.12,73.39,68.25,68.21,62.43,77.21,64.58,70.61,72.48,62.28,66.92,66.7,61.6,62.96,74.37,61.6,64.3,70.59,61.51,64.32,74.39,67.85,62.82,70.16,70.66,64.55,79.8,83.17,69.71,69.89,75.62,66.75,76.72,41.67
89.33,89.33,88.83,88.83,87.82,87.82,94.37,94.37,94.21,94.21,92.05,92,88.01,88.01,96.32,94.21,96.58,94.92,96.27,96.49,98.41,96.97,98.92,102.66,94.37,88.19,89.67,91.55,93.43,87.87,81.53,92.76,84.7,83.59,88.43,89.11,86.31,86.16,88.9,88.24,86.36,85.86,85.89,88.75,88.76,85.06,86.61,86.54,88.17,89.36,89.51,89.64,89.18,81.4,87.35,88.81,88.79,89.17,88.13,89.96,89.86,89.86,91.56,87.86,95.77,88.21,89.52,87.14,92.16,89.03,89.61,87.35,86.87,88.32,90.02,90.24,88.69,89.69,94.01,91.02,86.8,85.69,88.43,91.26,93.53,91.18,87,86.15,86.56,90.22,89.76,91.43,86.91,85.7,85.73,87.65,88.23,93.17,86.74,92.95,92.88,91.09,91.38,89.3,88.9,86.73,91.87,87.7,89.27,90.76,86.64,88.58,88.77,86.25,87.16,91.77,86.25,86.9,89.35,86.87,87.08,91.43,88.77,86.26,89.74,90.29,87.43,93.35,93.69,89.21,89.48,92.63,88.41,91.49,86.21
96.1,96.1,94.71,94.71,94.53,94.53,98.76,98.76,98.95,98.95,98.69,98.76,96.45,96.45,98.87,98.08,98.82,98.06,97.8,98.59,99.6,99.85,99.63,101.63,97.64,93.65,95.25,95.68,96.26,93,89.63,97.2,91.09,91.33,93.54,94.41,92.39,92.62,94.03,93.18,92.99,92.53,93.42,94.47,95.23,94.11,94.32,93.59,94.73,94.87,94.09,93.88,94.69,90.3,92.93,93.41,92.78,92.75,92.64,93.53,94.51,94.51,95.26,92.89,99.32,93.17,94.41,93.42,96.1,94.26,94.1,93.67,93.78,94.71,94.15,94.14,94.29,93.91,96.67,94.98,93.37,92.21,93.1,95.41,96.98,95.69,93.05,91.97,92.56,94.36,94.31,95.32,92.65,92.68,92.99,93.04,93.82,96.68,92.44,96.29,96.51,95.34,95.74,95.09,93.84,92.81,95.66,93.09,94.17,95.16,92.75,93.41,93.72,92.07,92.96,95.67,92.07,92.28,93.79,93.12,92.3,95.35,93.93,92.04,94.25,94.31,92.41,96.03,96.24,93.86,94.21,96.31,93,94.6,95.52
97.17,97.17,96.05,96.05,95.12,95.12,97.91,97.91,97.94,97.94,97.67,97.64,95.86,95.86,98.14,98.19,98.06,98.18,97.99,98.92,98.38,98.25,97.77,98.31,95.33,95.39,95.83,95.96,96.12,94.06,92.39,97.11,92.6,92.81,93.98,94.42,93.88,94.59,95.59,95,93.15,93.84,94.35,95.1,95,94.61,95,93.81,94.42,94.54,95.74,95.16,94.22,92.63,94.38,94.4,92.81,92.94,93.2,93.56,94.5,94.5,96.25,94.29,98.77,94.42,95.2,94.51,96.12,94.92,94.73,94.33,94.58,94.95,95.04,95.16,94.49,94.87,97.15,95.8,94.41,93.38,93.98,95.59,97.05,95.84,93.55,93.48,93.87,95.02,95.2,95.93,93.38,93.43,94.21,93.71,94.48,97.64,93.97,97.08,97.02,96.04,96.58,96.24,94.83,93.87,96.06,94.01,94.9,95.62,93.67,94.85,95.16,93.41,94.3,96.6,93.41,93.42,94.57,94.25,93.35,96.11,94.65,93.05,95.03,95.49,93.63,96.82,96.84,94.85,95.06,97.01,94.31,95.5,97.28
97.67,97.67,97.05,97.05,97.21,97.21,99.86,99.86,100.02,100.02,100.01,100.12,99.19,99.19,99.55,99.38,99.45,99.23,99.02,99.35,99.78,100.18,99.86,101.22,99.09,96.26,97.17,97.29,97.55,95.95,94.76,98.36,95.33,95.69,96.6,96.91,95.72,96.04,96.46,96.09,96.29,95.9,96.28,96.73,96.94,96.4,96.63,96.43,96.86,97.17,96.81,96.45,97.06,94.7,96.06,96.29,95.83,95.81,95.95,96.01,96.47,96.47,96.78,95.05,99.66,94.89,95.8,95.15,97.21,95.88,95.78,95.43,95.36,96.02,95.71,95.7,95.61,95.48,97.51,96.23,95,94.16,94.85,96.67,97.79,96.85,94.97,94.29,94.72,96.06,95.83,96.55,94.69,94.8,95.02,95,95.5,97.64,94.54,97.3,97.37,96.74,96.64,96.83,95.46,94.94,97.03,95.07,95.83,96.33,94.93,95.12,95.46,94.26,94.76,96.78,94.26,94.41,95.47,95.04,94.33,96.36,95.49,94.03,95.48,95.94,94.47,96.99,97.1,95.56,95.92,97.14,94.84,95.92,97.22
95.32,95.32,94.54,94.54,94.22,94.22,97.8,97.8,97.81,97.81,97.11,97.19,95.52,95.52,98.64,97.88,98.72,97.81,98.45,98.44,99.69,99.58,100.4,102.38,98.65,93.75,95.07,95.74,96.58,93.74,91.01,96.56,92,92.01,94.22,94.75,93.14,92.97,94.08,93.68,93.31,93.07,93.28,94.28,94.78,93.15,93.63,93.63,94.51,95.2,94.44,94.54,95.02,90.99,93.53,94.34,94.21,94.24,93.96,95.62,96.07,96.07,96.32,94.64,99.46,94.62,95.46,94.58,96.77,95.45,95.43,94.8,94.65,95.47,95.43,95.5,95.26,95.26,97.25,95.86,94.36,93.74,94.68,96.3,97.31,96.25,94.41,93.83,94.01,95.7,95.52,96.09,94.25,94.06,93.95,94.47,94.93,97.3,94.1,97.01,97.16,96.46,96.43,95.94,95.1,94.29,96.6,94.56,95.41,95.92,94.33,94.7,94.93,93.86,94.35,96.3,93.86,94.06,95.15,94.39,94.01,96.12,95.16,93.8,95.27,95.43,94.15,96.77,97.05,95.22,95.4,96.71,94.06,95.73,93.82
89.11,89.11,89.92,89.92,88.57,88.57,93.53,93.53,93.3,93.3,91.08,90.94,89.09,89.09,95.71,93.65,96.13,94.05,96.43,96.2,97.77,96.35,98.68,103.65,95.62,88.35,89.65,91.79,93.84,89.37,83.84,92.73,86.5,84.92,90.13,90.13,88.03,86.02,87.96,89.58,88.63,87.12,87.08,89.45,89.15,84.28,85.93,86.88,88.79,91.51,90.25,90.5,90.31,82.52,88.09,90.45,91.08,91.31,90.39,93.91,94.04,94.04,94.44,92.25,97.71,91.89,92.9,91.1,95.03,93.01,93.2,91.75,91.1,92.21,93.36,93.6,92.66,93.22,95.81,93.69,90.95,90.22,92.38,94.34,95.81,94.03,91.68,90.85,91.03,93.59,92.95,94.03,91.41,90.47,90.39,91.83,92.15,95.28,91.21,95.35,95.11,94.45,93.63,93.37,92.51,91.59,94.99,91.9,93.18,93.7,91.34,92.14,92.29,91.03,91.43,94.35,91.03,91.54,92.95,91.45,91.49,93.84,92.38,90.87,92.79,93.45,91.55,95.26,95.56,92.83,93.18,94.51,91.51,94.11,85.87
91.17,91.17,92.12,92.12,91.22,91.22,95.17,95.17,95.04,95.04,93.25,93.16,91.93,91.93,96.71,95,96.95,95.19,97.05,96.98,98.35,97.09,98.88,102.9,96.63,90.69,91.8,93.48,95.1,91.6,87.25,94.6,89.67,88.37,92.66,92.55,90.58,88.8,90.16,91.85,91.58,89.82,89.81,91.77,91.43,87.45,88.78,89.55,91.19,93.63,92.41,92.43,92.56,86.07,90.58,92.43,92.9,93.11,92.46,94.94,95.12,95.12,95.32,93.39,98.38,92.98,93.86,92.17,95.85,94.08,94.3,92.94,92.28,93.25,94.34,94.6,93.9,94.23,96.39,94.55,92.06,91.44,93.58,95.26,96.53,94.95,93.03,92.14,92.32,94.5,93.8,94.84,92.65,91.6,91.67,93.12,93.25,95.72,92.42,95.94,95.57,95.09,94.01,94.15,93.54,92.89,95.85,93.12,94.28,94.56,92.57,93.11,93.28,92.28,92.51,95.02,92.28,92.87,93.97,92.55,92.76,94.46,93.3,92.17,93.67,94.42,92.78,95.93,96.14,93.83,94.18,95.09,92.88,95.02,88.42
54.76,54.76,61.42,61.42,54.7,54.7,71.47,71.47,70.24,70.24,62.7,61.95,54.23,54.23,71.9,61.14,73.81,66.39,80.52,78.38,83.13,75.46,81.29,110.22,67.6,54.68,58.43,67.97,78.95,60.4,43.56,70.08,53.61,46.18,65.28,64.85,56.3,51.42,57.88,63.7,60.27,53.81,52.78,61.09,57.36,43.36,48.68,55.23,60.34,69.72,64.58,64.36,66.85,36.16,57.07,63.91,70.33,72.37,66.84,80.02,77.29,77.29,77.81,70.99,84.93,68.4,71.63,64.51,80.5,73.52,74.49,67.22,63.72,68.19,75.46,76.72,70.83,75.23,84.28,76.46,64.82,61.97,72.02,78.78,83.84,76.83,68.74,65.7,66.1,75.67,73.11,77.17,67.39,62.67,62.17,69.03,70.11,80.82,67.11,82.31,80.36,79.04,74.54,73.8,71.64,68.13,80.77,69.41,74.48,75.56,67.32,70.82,71.06,66.49,67.38,78.56,66.49,68.66,73.85,66.94,68.33,76.28,70.26,65.82,72.26,75.75,68.51,82.27,83.9,73.25,74.29,78.2,70.15,78.94,39.33
71.84,71.84,75.29,75.29,71.23,71.23,82.06,82.06,81.38,81.38,78.37,77.98,71.66,71.66,86.95,82.64,87.76,85.08,90.45,89.71,92.06,91.36,92.98,105.87,87.03,71.55,72.9,78.74,85.44,73.16,63.2,79.76,67.88,64.91,75.38,75.54,70.68,69.7,73.49,75.02,72.26,69.65,69.96,74.12,72.71,65.41,68.14,71.67,73.77,79.48,76.69,75.86,77.46,59.48,71.34,75.36,79.18,80.1,76.63,83.39,81.62,81.62,82.33,76.95,87.91,75.42,77.97,73.24,84.5,78.99,79.46,74.54,72.56,75.95,80.84,81.31,76.91,80.13,87.4,81.38,73.38,71.15,77.58,83.41,87.17,82.02,75.39,73.14,73.15,80.66,78.9,81.83,74.69,72.06,70.77,75.47,76.63,85.45,73.97,86.04,85.51,83.7,81.39,79.61,77.82,74.57,84.67,75.65,79.41,81.16,74.23,77.08,77.17,73.37,74.28,82.89,73.37,74.51,79.1,74.49,74.67,81.68,77.18,73.37,78.57,80.55,75.07,85.87,87.21,78.83,79.35,83.41,77.02,83.21,64.29
86.06,86.06,88.35,88.35,86.24,86.24,91.49,91.49,91.16,91.16,88.88,88.67,86.93,86.93,93.85,91.85,94.28,92,95.5,95.32,96.73,95.73,97.84,104.03,94.95,86.2,87.21,90,92.67,87.35,81.47,91.02,84.25,82.41,88.38,88.15,86.02,83.87,85.58,87.95,86.67,85.01,85.06,87.56,87.16,81.63,83.46,84.86,86.87,90.43,88.83,88.64,89.01,79.49,86.03,88.76,90.2,90.51,89.18,92.89,91.97,91.97,92.11,89.02,96.55,88.35,89.67,87.21,93.13,90.3,90.58,88.36,87.24,88.66,90.73,91.13,89.77,90.53,94.03,91.06,87.06,85.87,89.29,92.13,94.26,91.76,88.47,87.09,87.35,90.79,89.69,91.47,87.78,86.23,86.36,88.46,88.83,92.9,87.55,93.35,92.73,92.05,90.39,90.6,89.39,88.28,93.09,88.66,90.52,91.04,87.84,88.84,89.04,87.27,87.67,91.92,87.27,88.03,90.02,87.77,87.93,90.91,88.82,86.95,89.49,90.89,88.01,93.31,93.65,89.8,90.35,91.96,88.66,91.87,83.58
47.68,47.68,55.31,55.31,47.14,47.14,66.18,66.18,64.85,64.85,58.13,57.33,47.59,47.59,63.44,51.99,65.5,58.62,74.46,72.75,77.41,71.74,73.96,108.31,57.64,46.81,50.36,61.32,74.36,51.86,35.1,63.6,44.5,37.75,57.49,57.54,48.17,45.6,52.44,56.88,52.2,46.71,46.21,53.98,49.97,37.71,42.45,49.61,53.97,64,58.46,57.07,61.01,27.57,49.64,55.9,64.2,65.94,59.37,76.29,72.49,72.49,73.89,65.96,81.37,63.14,66.57,59.1,76.61,68.78,69.78,61.98,57.86,63.09,71.35,72.51,65.66,70.95,81.51,72.52,59.4,56,66.91,75.19,81.12,73.14,63.54,60.09,60.36,71.44,68.7,73.23,61.88,56.95,56.18,63.53,65.27,77.83,61.58,79.5,77.59,75.96,71.09,69.91,67.01,62.57,77.18,64.24,69.96,71.33,62.08,66.01,66.51,60.72,61.83,75.18,60.72,62.85,69.34,61.8,62.55,72.56,65.41,59.91,67.6,71.4,62.9,79.13,80.98,68.62,69.82,74.92,64.88,74.96,30.74
68.35,68.35,72.43,72.43,67.54,67.54,78.97,78.97,78.16,78.16,74.54,74.08,67.49,67.49,85.05,79.96,85.93,81.91,88.22,87.69,90.64,89.28,90.64,105.6,83.68,67.73,69.25,75.65,82.86,69.12,58.28,76.95,64.12,60.43,71.48,71.81,67.05,65.8,69.93,72.26,68.91,66.1,66.37,70.97,69.27,61.37,64.19,68.07,70.81,77.26,73.97,72.85,74.84,55.03,67.92,72.34,76.64,77.43,73.71,84.21,82.02,82.02,83.42,78.04,88.74,76.69,78.81,74.3,84.89,79.67,80.29,76.05,73.82,76.87,81.61,82.11,78.14,81.01,87.86,82.03,74.25,72.12,78.4,83.95,87.82,82.84,76.54,74.37,74.31,81.44,79.7,82.67,75.62,72.93,72.31,76.49,77.54,85.79,75.1,86.62,86.04,84.25,81.72,80.64,78.78,75.84,85.35,76.86,80.31,81.82,75.39,77.84,78.19,74.64,75.47,83.81,74.64,75.71,79.93,75.79,75.72,82.33,77.92,74.2,79.24,81.48,76.09,86.48,87.4,79.62,80.3,84.05,76.93,83.61,60.04
75.13,75.13,79.43,79.43,75.67,75.67,84.19,84.19,83.66,83.66,81.41,81.1,76.49,76.49,89.33,86.65,89.8,87.91,91.79,91.99,92.82,93.37,92.78,102.97,89.66,75.86,76.16,81.12,86.67,76.29,69.23,82.2,72.7,70.46,78.34,78.28,74.84,74.63,77.21,78.92,76.51,74.57,75.08,77.93,76.44,70.9,73.04,75.78,77.67,82.63,80.47,79.01,80.88,65.92,75.4,78.39,81.94,82.47,79.78,86.45,84.18,84.18,85.76,80.58,89.56,79.41,81.3,77.83,86.72,82.19,82.62,79.22,77.51,79.92,83.69,84.03,80.77,83.09,89.36,84.28,77.74,75.54,80.6,85.81,89.62,85.35,79.46,77.42,77.78,83.53,81.99,85.02,78.4,76.4,76.67,79.41,80.5,87.78,78.13,88.36,87.8,85.94,83.85,83.58,81.37,78.97,87.19,79.74,82.68,84.18,78.49,80.59,81.1,77.56,78.41,86.09,77.56,78.38,82.22,79.01,78.36,84.46,80.44,76.97,81.65,83.99,78.8,88.14,88.68,82.02,82.86,86.49,80.34,85.38,70.3
80.9,80.9,83.82,83.82,81.14,81.14,87.93,87.93,87.53,87.53,86.12,85.88,82.12,82.12,92.68,91.09,92.94,91.89,94.29,94.46,94.94,95.97,94.97,101.96,93.14,81.34,81.41,85.12,89.44,81.2,76,85.87,78.41,77.03,82.65,82.81,80.07,80.51,82.56,83.27,81.32,80.07,80.61,82.76,81.64,77.78,79.37,81.29,82.54,86.05,84.65,83.27,84.94,73.57,80.72,82.72,85.29,85.71,83.59,89.15,87.28,87.28,88.68,84.31,91.95,83.53,85.08,82.86,89.4,85.75,85.92,83.72,82.74,84.53,86.94,87.04,84.67,86.27,91.54,87.54,82.81,80.92,84.2,88.68,91.8,88.57,83.56,81.93,82.34,86.67,85.71,88.15,82.75,81.71,82.09,83.44,84.62,90.72,82.47,90.81,90.76,88.89,87.83,87.56,85.25,83.19,89.74,83.8,86.06,87.58,82.91,84.65,85.07,81.93,82.85,88.99,81.93,82.41,85.62,83.6,82.44,87.88,84.59,81.49,85.55,87.19,82.87,90.45,90.83,85.51,86.27,89.79,84.42,88.02,77.38
68.16,68.16,72.12,72.12,67.53,67.53,78.46,78.46,77.69,77.69,74.44,73.99,67.79,67.79,85.43,80.84,86.28,83.13,89.07,88.43,90.87,89.72,90.22,104.06,84.35,67.55,68.49,74.86,82.8,69.15,59.56,76.1,64.65,61.01,71.9,72.02,67.04,66.34,70.39,72.16,69.32,66.48,66.77,70.59,68.53,61.87,64.36,68.19,70.66,77.1,73.61,72.26,74.65,55.69,67.74,71.45,76.55,77.09,73.25,82.58,79.88,79.88,81.39,75.54,85.95,73.53,75.95,71.12,83.18,77.39,78.16,72.92,70.2,74.02,79.51,80.09,75.32,78.94,86.43,79.92,71.33,68.77,76.01,82.09,86.29,80.63,73.8,71.52,71.51,79.31,77.23,80.57,72.84,69.7,69.01,73.8,75.14,83.82,72.36,84.97,84.11,82.57,79.17,78.31,76.24,73.32,83.75,74.25,78.25,79.53,72.64,75.62,75.64,71.88,72.53,81.97,71.88,73.07,77.82,72.87,73.1,80.02,75.26,71.43,76.71,79.64,73.52,84.81,85.93,77.45,78.24,81.95,75.43,81.98,58.87
81.8,81.8,84.67,84.67,81.79,81.79,87.94,87.94,87.61,87.61,85.99,85.79,81.98,81.98,93.9,91.89,94.1,91.82,94.56,94.49,96.15,96.57,96.27,102.6,93.9,81.84,82.04,85.37,89.24,81.44,75.82,86.15,79.08,77.28,82.24,82.66,80.83,80.82,82.83,83.79,81.52,80.41,80.98,83.22,82.48,78.73,80.02,81.89,83.27,86.84,85.32,84.12,85.45,75.12,81.63,83.62,85.87,86.18,84.32,89.25,87.78,87.78,88.97,84.88,92.45,83.92,85.53,83.35,89.69,86.18,86.25,84.21,83.27,85.11,87.31,87.33,85.02,86.49,91.55,87.61,83.09,81.27,84.45,88.83,91.9,88.65,83.84,82.52,82.82,87.07,86.05,88.31,83.25,82.31,82.51,83.73,84.9,90.85,82.84,91.07,90.91,89.35,88.16,88.01,85.43,83.69,90.03,84.02,86.32,87.73,83.27,84.85,85.28,82.49,83.3,89.3,82.49,82.88,85.92,84.04,82.92,87.89,84.9,81.94,85.72,87.5,83.24,90.58,90.95,85.8,86.59,89.9,84.42,88.21,79.13
93.07,93.07,93.6,93.6,92.66,92.66,95.52,95.52,95.39,95.39,94.84,94.78,93.11,93.11,97.82,97.5,97.76,97.44,97.97,98.16,98.63,99.1,98.67,100.7,98.11,92.56,92.95,93.95,95.25,91.67,89.37,94.37,90.7,90.45,92.24,92.67,91.74,92.13,93.03,92.81,91.89,91.79,92.17,93.06,92.9,91.54,92.14,92.27,92.91,94.07,93.59,93.06,93.73,89.53,92.09,92.72,93.01,92.97,92.47,93.38,92.52,92.52,93.64,90.97,96.47,90.46,91.53,90.7,94.05,91.92,91.88,90.99,90.82,91.82,92.36,92.41,91.3,91.83,94.93,92.73,90.44,89.27,90.47,93.36,95.42,93.74,90.51,89.82,90.1,92.39,91.99,93.37,90.11,90.02,90.2,90.32,91.28,95.08,89.92,94.98,95.14,93.96,93.45,93.47,91.63,90.46,94.19,90.65,91.97,92.94,90.38,91.12,91.6,89.51,90.11,93.74,89.51,89.79,91.49,90.82,89.58,93.08,91.19,89.17,91.66,92.68,90.01,94.57,94.46,91.54,92.21,94.65,90.83,92.73,92.74
64.73,64.73,69.09,69.09,63.09,63.09,74.98,74.98,74.11,74.11,72.3,71.66,64.32,64.32,83.5,80.25,84.11,82.2,86.9,87.69,89.36,90.58,87.25,99.33,82.73,63.72,63.05,69.25,78,62.65,54.8,71.13,58.75,56.5,65.79,66.47,62.11,64.18,67.85,67.74,64,62.8,63.86,65.97,63.69,60.76,62.05,65.28,66.47,73.24,70.22,66.81,70.66,52.4,62.96,65.36,70.69,70.97,67.14,78.24,75.25,75.25,77.89,70.45,83.28,68.29,71.09,66,79.44,72.51,73.34,67.88,64.54,69.42,75.51,75.82,70.13,74.24,83.37,75.73,66.08,62.46,70.56,78.05,83.47,76.88,68.48,66.07,65.78,75.12,72.78,76.6,67.25,64.38,63.45,68.34,70.26,81.05,67,82.17,81.73,79.56,75.75,75.27,71.62,68.3,80.63,69.19,73.78,75.4,67.54,70.59,70.74,66.08,67.16,78.79,66.08,67.06,72.87,67.96,67.14,75.67,70.37,65.41,71.51,75.65,68.05,81.38,82.5,72.92,73.72,78.35,70.24,77.35,55.95
80.61,80.61,82.95,82.95,79.75,79.75,86.23,86.23,85.46,85.46,85.26,84.61,80.42,80.42,92.58,92.18,93.09,92.41,93.43,94.55,94.84,96.25,93.73,98.66,91.95,80.42,79.91,83.42,87.22,78.52,74.63,84.3,76.62,76.3,80.08,80.78,78.85,80.8,83,82.33,80.04,80.03,80.87,82.1,80.63,79.32,80.02,80.82,82.02,85.18,84.24,81.98,83.6,74.12,80.28,80.8,82.46,82.94,80.91,86.38,84.72,84.72,86.85,81.84,90.61,81.06,83.16,80.65,87.77,83.28,82.91,80.93,80.7,82.34,84.64,83.94,82.12,83.92,89.95,85.03,80.12,78.07,81.05,85.72,90.43,86.51,80.25,78.85,79.14,83.86,82.95,86.02,79.7,79.66,79.63,80.23,81.78,89.23,79.46,88.99,89.73,87.27,86.79,86.81,82.9,80.49,88.1,80.6,83.41,85.17,79.69,81.5,82.05,78.61,79.22,87.68,78.61,78.65,82.37,80.93,79.01,85.22,81.44,78.11,82.46,84.57,79.21,87.94,88.62,82.78,83.42,87.38,81.2,84.38,77.99