File: 5_RW_thesis/Degradation_FTIR/Proteomics.csv
Wavenumber (cm^-1)
3999.43
3995.71
3991.98
3988.25
3984.52
3980.8
3977.07
3973.34
3969.61
3965.89
3962.16
3958.43
3954.71
3950.98
3947.25
3943.52
3939.8
3936.07
3932.34
3928.61
3924.89
3921.16
3917.43
3913.7
3909.98
3906.25
3902.52
3898.8
3895.07
3891.34
3887.61
3883.89
3880.16
3876.43
3872.7
3868.98
3865.25
3861.52
3857.79
3854.07
3850.34
3846.61
3842.89
3839.16
3835.43
3831.7
3827.98
3824.25
3820.52
3816.79
3813.07
3809.34
3805.61
3801.88
3798.16
3794.43
3790.7
3786.98
3783.25
3779.52
3775.79
3772.07
3768.34
3764.61
3760.88
3757.16
3753.43
3749.7
3745.97
3742.25
3738.52
3734.79
3731.07
3727.34
3723.61
3719.88
3716.16
3712.43
3708.7
3704.97
3701.25
3697.52
3693.79
3690.06
3686.34
3682.61
3678.88
3675.16
3671.43
3667.7
3663.97
3660.25
3656.52
3652.79
3649.06
3645.34
3641.61
3637.88
3634.15
3630.43
3626.7
3622.97
3619.25
3615.52
3611.79
3608.06
3604.34
3600.61
3596.88
3593.15
3589.43
3585.7
3581.97
3578.24
3574.52
3570.79
3567.06
3563.33
3559.61
3555.88
3552.15
3548.43
3544.7
3540.97
3537.24
3533.52
3529.79
3526.06
3522.33
3518.61
3514.88
3511.15
3507.42
3503.7
3499.97
3496.24
3492.52
3488.79
3485.06
3481.33
3477.61
3473.88
3470.15
3466.42
3462.7
3458.97
3455.24
3451.51
3447.79
3444.06
3440.33
3436.61
3432.88
3429.15
3425.42
3421.7
3417.97
3414.24
3410.51
3406.79
3403.06
3399.33
3395.6
3391.88
3388.15
3384.42
3380.7
3376.97
3373.24
3369.51
3365.79
3362.06
3358.33
3354.6
3350.88
3347.15
3343.42
3339.69
3335.97
3332.24
3328.51
3324.79
3321.06
3317.33
3313.6
3309.88
3306.15
3302.42
3298.69
3294.97
3291.24
3287.51
3283.78
3280.06
3276.33
3272.6
3268.88
3265.15
3261.42
3257.69
3253.97
3250.24
3246.51
3242.78
3239.06
3235.33
3231.6
3227.87
3224.15
3220.42
3216.69
3212.97
3209.24
3205.51
3201.78
3198.06
3194.33
3190.6
3186.87
3183.15
3179.42
3175.69
3171.96
3168.24
3164.51
3160.78
3157.06
3153.33
3149.6
3145.87
3142.15
3138.42
3134.69
3130.96
3127.24
3123.51
3119.78
3116.05
3112.33
3108.6
3104.87
3101.15
3097.42
3093.69
3089.96
3086.24
3082.51
3078.78
3075.05
3071.33
3067.6
3063.87
3060.14
3056.42
3052.69
3048.96
3045.24
3041.51
3037.78
3034.05
3030.33
3026.6
3022.87
3019.14
3015.42
3011.69
3007.96
3004.23
3000.51
2996.78
2993.05
2989.32
2985.6
2981.87
2978.14
2974.42
2970.69
2966.96
2963.23
2959.51
2955.78
2952.05
2948.32
2944.6
2940.87
2937.14
2933.41
2929.69
2925.96
2922.23
2918.51
2914.78
2911.05
2907.32
2903.6
2899.87
2896.14
2892.41
2888.69
2884.96
2881.23
2877.5
2873.78
2870.05
2866.32
2862.6
2858.87
2855.14
2851.41
2847.69
2843.96
2840.23
2836.5
2832.78
2829.05
2825.32
2821.59
2817.87
2814.14
2810.41
2806.69
2802.96
2799.23
2795.5
2791.78
2788.05
2784.32
2780.59
2776.87
2773.14
2769.41
2765.68
2761.96
2758.23
2754.5
2750.78
2747.05
2743.32
2739.59
2735.87
2732.14
2728.41
2724.68
2720.96
2717.23
2713.5
2709.77
2706.05
2702.32
2698.59
2694.87
2691.14
2687.41
2683.68
2679.96
2676.23
2672.5
2668.77
2665.05
2661.32
2657.59
2653.86
2650.14
2646.41
2642.68
2638.96
2635.23
2631.5
2627.77
2624.05
2620.32
2616.59
2612.86
2609.14
2605.41
2601.68
2597.95
2594.23
2590.5
2586.77
2583.05
2579.32
2575.59
2571.86
2568.14
2564.41
2560.68
2556.95
2553.23
2549.5
2545.77
2542.04
2538.32
2534.59
2530.86
2527.14
2523.41
2519.68
2515.95
2512.23
2508.5
2504.77
2501.04
2497.32
2493.59
2489.86
2486.13
2482.407
2478.68
2474.95
2471.22
2467.5
2463.77
2460.04
2456.32
2452.59
2448.86
2445.13
2441.41
2437.68
2433.95
2430.22
2426.5
2422.77
2419.04
2415.31
2411.59
2407.86
2404.13
2400.41
2396.68
2392.95
2389.22
2385.5
2381.77
2378.04
2374.31
2370.59
2366.86
2363.13
2359.4
2355.68
2351.95
2348.22
2344.5
2340.77
2337.04
2333.31
2329.59
2325.86
2322.13
2318.4
2314.68
2310.95
2307.22
2303.49
2299.77
2296.04
2292.31
2288.59
2284.86
2281.13
2277.4
2273.68
2269.95
2266.22
2262.49
2258.77
2255.04
2251.31
2247.58
2243.86
2240.13
2236.4
2232.68
2228.95
2225.22
2221.49
2217.77
2214.04
2210.31
2206.584
2202.86
2199.13
2195.4
2191.67
2187.95
2184.22
2180.49
2176.77
2173.04
2169.31
2165.58
2161.86
2158.13
2154.4
2150.67
2146.95
2143.22
2139.49
2135.76
2132.04
2128.31
2124.58
2120.86
2117.13
2113.4
2109.67
2105.95
2102.22
2098.49
2094.76
2091.04
2087.31
2083.58
2079.85
2076.13
2072.4
2068.67
2064.95
2061.22
2057.49
2053.76
2050.04
2046.31
2042.58
2038.85
2035.13
2031.4
2027.67
2023.94
2020.22
2016.49
2012.76
2009.04
2005.31
2001.58
1997.85
1994.13
1990.4
1986.67
1982.94
1979.22
1975.49
1971.76
1968.03
1964.31
1960.58
1956.85
1953.13
1949.4
1945.67
1941.94
1938.22
1934.49
1930.761
1927.03
1923.31
1919.58
1915.85
1912.12
1908.4
1904.67
1900.94
1897.21
1893.49
1889.76
1886.03
1882.31
1878.58
1874.85
1871.12
1867.4
1863.67
1859.94
1856.21
1852.49
1848.76
1845.03
1841.3
1837.58
1833.85
1830.12
1826.4
1822.67
1818.94
1815.21
1811.49
1807.76
1804.03
1800.3
1796.58
1792.85
1789.12
1785.39
1781.67
1777.94
1774.21
1770.49
1766.76
1763.03
1759.3
1755.58
1751.85
1748.12
1744.39
1740.67
1736.94
1733.21
1729.48
1725.76
1722.03
1718.3
1714.58
1710.85
1707.12
1703.39
1699.67
1695.94
1692.21
1688.48
1684.76
1681.03
1677.3
1673.57
1669.85
1666.12
1662.39
1658.67
1654.938
1651.21
1647.48
1643.76
1640.03
1636.3
1632.57
1628.85
1625.12
1621.39
1617.66
1613.94
1610.21
1606.48
1602.76
1599.03
1595.3
1591.57
1587.85
1584.12
1580.39
1576.66
1572.94
1569.21
1565.48
1561.75
1558.03
1554.3
1550.57
1546.85
1543.12
1539.39
1535.66
1531.94
1528.21
1524.48
1520.75
1517.03
1513.3
1509.57
1505.84
1502.12
1498.39
1494.66
1490.94
1487.21
1483.48
1479.75
1476.03
1472.3
1468.57
1464.84
1461.12
1457.39
1453.66
1449.93
1446.21
1442.48
1438.75
1435.03
1431.3
1427.57
1423.84
1420.12
1416.39
1412.66
1408.93
1405.21
1401.48
1397.75
1394.02
1390.3
1386.57
1382.84
1379.115
1375.39
1371.66
1367.93
1364.21
1360.48
1356.75
1353.02
1349.3
1345.57
1341.84
1338.11
1334.39
1330.66
1326.93
1323.2
1319.48
1315.75
1312.02
1308.3
1304.57
1300.84
1297.11
1293.39
1289.66
1285.93
1282.2
1278.48
1274.75
1271.02
1267.29
1263.57
1259.84
1256.11
1252.39
1248.66
1244.93
1241.2
1237.48
1233.75
1230.02
1226.29
1222.57
1218.84
1215.11
1211.38
1207.66
1203.93
1200.2
1196.48
1192.75
1189.02
1185.29
1181.57
1177.84
1174.11
1170.38
1166.66
1162.93
1159.2
1155.47
1151.75
1148.02
1144.29
1140.57
1136.84
1133.11
1129.38
1125.66
1121.93
1118.2
1114.47
1110.75
1107.02
1103.292
1099.56
1095.84
1092.11
1088.38
1084.66
1080.93
1077.2
1073.47
1069.75
1066.02
1062.29
1058.56
1054.84
1051.11
1047.38
1043.65
1039.93
1036.2
1032.47
1028.75
1025.02
1021.29
1017.56
1013.84
1010.11
1006.38
1002.65
998.927
995.199
991.472
987.745
984.017
980.29
976.563
972.835
969.108
965.38
961.653
957.926
954.198
950.471
946.744
943.016
939.289
935.562
931.834
928.107
924.38
920.652
916.925
913.198
909.47
905.743
902.016
898.288
894.561
890.834
887.106
883.379
879.652
875.924
872.197
868.47
864.742
861.015
857.288
853.56
849.833
846.106
842.378
838.651
834.924
831.196
827.469
823.742
820.014
816.287
812.56
808.832
805.105
801.378
797.65
793.923
790.196
786.468
782.741
779.014
775.286
771.559
767.832
764.104
760.377
756.65
752.922
749.195
745.468
741.74
738.013
734.286
730.558
726.831
723.104
719.376
715.649
711.922
708.194
704.467
700.74
697.012
693.285
689.557
685.83
682.103
678.375
674.648
670.921
667.193
663.466
659.739
656.011
652.284
650.42