File: 5_RW_thesis/Degradation_FTIR/Raw_plastics.csv
Wavenumber (cm^-1),Powder,Weathered powder,Low crystallinity pieces
3999.43,95.76,96.61,99.55
3995.71,95.72,96.67,99.42
3991.98,95.81,96.75,99.5
3988.25,95.75,96.65,99.57
3984.52,95.72,96.53,99.56
3980.8,95.76,96.67,99.48
3977.07,95.81,96.58,99.43
3973.34,95.68,96.77,99.55
3969.61,95.76,96.62,99.53
3965.89,95.72,96.58,99.53
3962.16,95.79,96.65,99.57
3958.43,95.8,96.62,99.54
3954.71,95.8,96.59,99.61
3950.98,95.79,96.66,99.46
3947.25,95.74,96.69,99.57
3943.52,95.76,96.66,99.54
3939.8,95.83,96.63,99.56
3936.07,95.67,96.63,99.64
3932.34,95.74,96.64,99.47
3928.61,95.78,96.63,99.55
3924.89,95.78,96.64,99.53
3921.16,95.66,96.61,99.49
3917.43,95.76,96.75,99.44
3913.7,95.83,96.67,99.58
3909.98,95.78,96.58,99.64
3906.25,95.47,96.49,99.65
3902.52,95.73,96.6,99.41
3898.8,95.98,96.8,99.46
3895.07,95.75,96.68,99.61
3891.34,95.75,96.69,99.56
3887.61,95.67,96.66,99.58
3883.89,95.72,96.56,99.57
3880.16,95.97,96.73,99.54
3876.43,95.94,96.66,99.61
3872.7,95.65,96.54,99.56
3868.98,95.82,96.71,99.59
3865.25,95.83,96.7,99.55
3861.52,95.94,96.76,99.67
3857.79,95.6,96.49,99.97
3854.07,95.71,96.71,99.46
3850.34,96.05,96.84,99.5
3846.61,95.79,96.73,99.64
3842.89,95.74,96.54,99.68
3839.16,95.7,96.58,99.6
3835.43,95.92,96.85,99.47
3831.7,96.02,96.73,99.62
3827.98,95.86,96.74,99.62
3824.25,95.43,96.53,99.7
3820.52,95.75,96.64,99.61
3816.79,95.94,96.65,99.53
3813.07,95.99,96.76,99.63
3809.34,95.71,96.51,99.69
3805.61,95.65,96.61,99.72
3801.88,95.78,96.8,99.57
3798.16,95.82,96.77,99.59
3794.43,95.88,96.68,99.54
3790.7,95.78,96.62,99.61
3786.98,95.7,96.54,99.58
3783.25,95.64,96.58,99.62
3779.52,95.81,96.72,99.54
3775.79,95.72,96.71,99.7
3772.07,95.69,96.56,99.63
3768.34,95.78,96.57,99.45
3764.61,95.83,96.68,99.63
3760.88,95.7,96.68,99.66
3757.16,95.84,96.58,99.65
3753.43,95.57,96.3,99.79
3749.7,95.96,96.8,99.77
3745.97,95.84,96.7,99.62
3742.25,96.07,96.92,99.65
3738.52,95.58,96.69,99.89
3734.79,95.76,96.59,99.54
3731.07,96.09,96.81,99.63
3727.34,95.9,96.75,99.63
3723.61,95.82,96.62,99.63
3719.88,95.93,96.65,99.65
3716.16,95.74,96.59,99.8
3712.43,95.71,96.66,99.67
3708.7,95.94,96.73,99.57
3704.97,95.85,96.74,99.64
3701.25,95.89,96.74,99.64
3697.52,95.93,96.76,99.65
3693.79,95.66,96.52,99.77
3690.06,95.76,96.62,99.48
3686.34,95.93,96.82,99.52
3682.61,95.87,96.77,99.61
3678.88,95.47,96.36,99.59
3675.16,95.91,96.56,99.41
3671.43,95.81,96.8,99.3
3667.7,95.97,96.86,99.24
3663.97,95.71,96.71,99.32
3660.25,95.63,96.42,99.34
3656.52,95.72,96.68,99.21
3652.79,95.49,96.42,99.43
3649.06,95.63,96.64,99.03
3645.34,95.81,96.72,98.96
3641.61,95.73,96.53,99.04
3637.88,95.51,96.54,98.99
3634.15,95.57,96.37,99.13
3630.43,95.44,96.49,98.96
3626.7,95.75,96.83,98.89
3622.97,95.59,96.61,98.93
3619.25,95.69,96.5,98.96
3615.52,95.62,96.71,98.9
3611.79,95.69,96.65,98.85
3608.06,95.72,96.63,98.99
3604.34,95.59,96.7,99.06
3600.61,95.7,96.64,99
3596.88,95.77,96.56,98.82
3593.15,95.74,96.68,99.06
3589.43,95.66,96.62,99.06
3585.7,95.85,96.88,98.76
3581.97,95.78,96.64,98.93
3578.24,95.77,96.68,98.91
3574.52,95.78,96.7,98.87
3570.79,95.53,96.64,98.8
3567.06,95.73,96.62,98.68
3563.33,95.85,96.76,98.8
3559.61,95.81,96.8,98.72
3555.88,95.6,96.53,98.63
3552.15,95.73,96.54,98.54
3548.43,95.61,96.7,98.41
3544.7,95.68,96.79,98.36
3540.97,95.64,96.54,98.56
3537.24,95.79,96.75,98.61
3533.52,95.76,96.66,98.73
3529.79,95.74,96.73,98.54
3526.06,95.79,96.6,98.48
3522.33,95.76,96.73,98.36
3518.61,95.76,96.56,98.5
3514.88,95.76,96.75,98.6
3511.15,95.79,96.68,98.63
3507.42,95.94,96.69,98.65
3503.7,95.76,96.77,98.6
3499.97,95.73,96.67,98.67
3496.24,95.89,96.58,98.44
3492.52,95.77,96.73,98.56
3488.79,95.97,96.73,98.69
3485.06,95.78,96.63,98.75
3481.33,95.76,96.78,98.59
3477.61,95.92,96.83,98.75
3473.88,95.71,96.56,98.61
3470.15,95.8,96.57,98.54
3466.42,95.96,96.63,98.73
3462.7,95.74,96.87,98.62
3458.97,95.9,96.67,98.58
3455.24,95.74,96.62,98.48
3451.51,95.75,96.53,98.39
3447.79,95.63,96.41,98.45
3444.06,95.57,96.36,98.17
3440.33,95.39,96.48,97.87
3436.61,95.51,96.41,98.07
3432.88,95.44,96.46,98.19
3429.15,95.53,96.49,98.06
3425.42,95.39,96.42,97.95
3421.7,95.47,96.35,98.01
3417.97,95.3,96.3,97.86
3414.24,95.46,96.47,98
3410.51,95.61,96.4,98.14
3406.79,95.55,96.49,98.12
3403.06,95.7,96.47,98.1
3399.33,95.76,96.52,98.28
3395.6,95.62,96.55,98.3
3391.88,95.7,96.61,98.31
3388.15,95.77,96.59,98.49
3384.42,95.8,96.59,98.44
3380.7,95.6,96.62,98.35
3376.97,95.72,96.57,98.45
3373.24,95.77,96.55,98.45
3369.51,95.75,96.56,98.4
3365.79,95.86,96.58,98.6
3362.06,95.81,96.55,98.61
3358.33,95.76,96.56,98.56
3354.6,95.79,96.47,98.56
3350.88,95.74,96.49,98.63
3347.15,95.7,96.62,98.49
3343.42,95.64,96.53,98.47
3339.69,95.68,96.59,98.51
3335.97,95.73,96.61,98.51
3332.24,95.62,96.55,98.64
3328.51,95.62,96.48,98.6
3324.79,95.62,96.59,98.65
3321.06,95.74,96.57,98.54
3317.33,95.74,96.57,98.54
3313.6,95.73,96.51,98.69
3309.88,95.7,96.62,98.58
3306.15,95.68,96.61,98.67
3302.42,95.67,96.61,98.68
3298.69,95.67,96.59,98.73
3294.97,95.68,96.48,98.7
3291.24,95.64,96.54,98.64
3287.51,95.65,96.47,98.75
3283.78,95.65,96.54,98.74
3280.06,95.71,96.52,98.76
3276.33,95.68,96.61,98.79
3272.6,95.81,96.55,98.73
3268.88,95.8,96.66,98.75
3265.15,95.71,96.63,98.76
3261.42,95.71,96.56,98.82
3257.69,95.72,96.6,98.88
3253.97,95.74,96.57,98.75
3250.24,95.64,96.5,98.83
3246.51,95.73,96.58,98.93
3242.78,95.77,96.63,98.92
3239.06,95.7,96.49,98.79
3235.33,95.7,96.6,98.94
3231.6,95.64,96.65,98.89
3227.87,95.72,96.56,98.9
3224.15,95.63,96.59,98.84
3220.42,95.67,96.62,98.9
3216.69,95.74,96.63,98.97
3212.97,95.73,96.52,98.89
3209.24,95.79,96.65,98.95
3205.51,95.83,96.56,98.94
3201.78,95.7,96.56,98.97
3198.06,95.66,96.63,98.88
3194.33,95.75,96.58,98.99
3190.6,95.75,96.72,98.87
3186.87,95.72,96.61,98.94
3183.15,95.71,96.57,99.02
3179.42,95.79,96.61,98.92
3175.69,95.73,96.55,99.03
3171.96,95.63,96.64,99.13
3168.24,95.69,96.56,99.1
3164.51,95.71,96.63,99.12
3160.78,95.71,96.59,99.12
3157.06,95.64,96.59,99.11
3153.33,95.64,96.52,99.08
3149.6,95.68,96.6,99.01
3145.87,95.66,96.55,99.02
3142.15,95.7,96.56,99.1
3138.42,95.63,96.59,99.04
3134.69,95.55,96.56,99.08
3130.96,95.58,96.46,99.07
3127.24,95.6,96.52,98.96
3123.51,95.61,96.42,99.04
3119.78,95.51,96.55,99.07
3116.05,95.44,96.4,99.05
3112.33,95.52,96.46,98.98
3108.6,95.37,96.41,98.87
3104.87,95.35,96.39,98.82
3101.15,95.35,96.32,98.83
3097.42,95.38,96.41,98.84
3093.69,95.4,96.4,98.88
3089.96,95.36,96.38,98.88
3086.24,95.3,96.34,98.78
3082.51,95.26,96.33,98.62
3078.78,95.26,96.33,98.58
3075.05,95.21,96.39,98.59
3071.33,95.22,96.25,98.61
3067.6,95.18,96.28,98.59
3063.87,95.19,96.25,98.58
3060.14,95.13,96.22,98.66
3056.42,95.16,96.22,98.67
3052.69,95.13,96.26,98.57
3048.96,95.25,96.34,98.72
3045.24,95.39,96.36,98.95
3041.51,95.45,96.39,99.13
3037.78,95.46,96.4,99.17
3034.05,95.47,96.48,99.23
3030.33,95.48,96.43,99.1
3026.6,95.43,96.38,99.1
3022.87,95.41,96.4,99.06
3019.14,95.29,96.34,98.94
3015.42,95.14,96.24,98.87
3011.69,95.13,96.24,98.77
3007.96,95,96.17,98.59
3004.23,94.85,96.04,98.45
3000.51,94.88,96.08,98.25
2996.78,94.8,96.01,98.18
2993.05,94.73,95.98,97.92
2989.32,94.59,95.84,97.65
2985.6,94.5,95.83,97.46
2981.87,94.26,95.73,97.12
2978.14,94.02,95.59,96.7
2974.42,93.81,95.38,96.24
2970.69,93.56,95.23,95.76
2966.96,93.45,95.13,95.15
2963.23,93.24,95.11,94.5
2959.51,93.29,95.18,93.99
2955.78,93.39,95.24,93.45
2952.05,93.6,95.38,92.96
2948.32,93.79,95.49,92.59
2944.6,94.05,95.64,92.22
2940.87,94.17,95.76,91.76
2937.14,94.24,95.76,91.36
2933.41,94.27,95.83,91.01
2929.69,94.1,95.74,90.62
2925.96,93.81,95.68,90.28
2922.23,93.5,95.49,90.19
2918.51,93.09,95.27,90.71
2914.78,92.83,95.11,91.58
2911.05,92.86,95.1,92.56
2907.32,92.92,95.16,93.22
2903.6,93.09,95.23,93.64
2899.87,93.31,95.34,93.82
2896.14,93.49,95.47,93.92
2892.41,93.57,95.45,94.07
2888.69,93.71,95.52,94.33
2884.96,93.82,95.56,94.75
2881.23,93.98,95.69,95.18
2877.5,94.14,95.73,95.51
2873.78,94.36,95.81,95.6
2870.05,94.43,95.82,95.4
2866.32,94.49,95.87,95.13
2862.6,94.49,95.93,94.55
2858.87,94.3,95.86,93.92
2855.14,94.05,95.72,93.37
2851.41,93.51,95.56,93.35
2847.69,93.3,95.42,94.19
2843.96,93.57,95.56,95.49
2840.23,93.96,95.67,96.55
2836.5,94.24,95.86,97.23
2832.78,94.48,95.99,97.7
2829.05,94.66,96.12,98
2825.32,94.79,96.1,98.19
2821.59,94.9,96.12,98.33
2817.87,94.91,96.12,98.43
2814.14,94.92,96.16,98.46
2810.41,94.9,96.1,98.46
2806.69,94.95,96.14,98.62
2802.96,95.03,96.14,98.6
2799.23,95.09,96.17,98.73
2795.5,95.14,96.21,98.77
2791.78,95.13,96.21,98.87
2788.05,95.16,96.25,98.87
2784.32,95.26,96.26,98.89
2780.59,95.26,96.3,98.98
2776.87,95.2,96.3,98.95
2773.14,95.32,96.35,99.03
2769.41,95.29,96.34,98.98
2765.68,95.31,96.3,99
2761.96,95.3,96.32,98.99
2758.23,95.33,96.33,99.01
2754.5,95.36,96.32,99.03
2750.78,95.27,96.32,99.01
2747.05,95.36,96.35,99.12
2743.32,95.41,96.32,99.09
2739.59,95.36,96.31,99.11
2735.87,95.37,96.34,99.09
2732.14,95.41,96.35,99.13
2728.41,95.41,96.36,99.13
2724.68,95.42,96.37,99.18
2720.96,95.45,96.39,99.2
2717.23,95.49,96.4,99.21
2713.5,95.49,96.4,99.21
2709.77,95.46,96.39,99.21
2706.05,95.51,96.4,99.25
2702.32,95.49,96.4,99.22
2698.59,95.5,96.45,99.26
2694.87,95.49,96.48,99.22
2691.14,95.49,96.42,99.29
2687.41,95.52,96.4,99.29
2683.68,95.5,96.42,99.27
2679.96,95.5,96.4,99.24
2676.23,95.5,96.37,99.28
2672.5,95.52,96.42,99.22
2668.77,95.46,96.39,99.3
2665.05,95.48,96.39,99.25
2661.32,95.47,96.33,99.25
2657.59,95.38,96.32,99.25
2653.86,95.37,96.36,99.24
2650.14,95.39,96.31,99.3
2646.41,95.41,96.33,99.31
2642.68,95.4,96.33,99.34
2638.96,95.4,96.32,99.3
2635.23,95.44,96.32,99.33
2631.5,95.42,96.34,99.35
2627.77,95.41,96.36,99.3
2624.05,95.42,96.35,99.34
2620.32,95.45,96.41,99.41
2616.59,95.51,96.43,99.4
2612.86,95.56,96.37,99.48
2609.14,95.54,96.41,99.5
2605.41,95.55,96.47,99.54
2601.68,95.57,96.41,99.57
2597.95,95.53,96.4,99.61
2594.23,95.61,96.47,99.59
2590.5,95.56,96.46,99.58
2586.77,95.68,96.55,99.58
2583.05,95.72,96.44,99.61
2579.32,95.64,96.55,99.65
2575.59,95.69,96.42,99.67
2571.86,95.65,96.46,99.69
2568.14,95.68,96.51,99.65
2564.41,95.65,96.52,99.62
2560.68,95.69,96.51,99.62
2556.95,95.69,96.5,99.62
2553.23,95.69,96.47,99.62
2549.5,95.7,96.56,99.59
2545.77,95.65,96.56,99.63
2542.04,95.71,96.57,99.71
2538.32,95.67,96.52,99.63
2534.59,95.82,96.51,99.67
2530.86,95.78,96.49,99.61
2527.14,95.72,96.51,99.58
2523.41,95.72,96.51,99.73
2519.68,95.82,96.61,99.68
2515.95,95.81,96.58,99.62
2512.23,95.78,96.59,99.65
2508.5,95.76,96.64,99.67
2504.77,95.75,96.56,99.68
2501.04,95.81,96.61,99.78
2497.32,95.78,96.56,99.84
2493.59,95.83,96.56,99.79
2489.86,95.87,96.57,99.8
2486.13,95.92,96.54,99.72
2482.407,95.76,96.63,99.77
2478.68,95.87,96.61,99.75
2474.95,95.88,96.62,99.75
2471.22,95.93,96.66,99.82
2467.5,95.82,96.59,99.85
2463.77,95.84,96.65,99.74
2460.04,95.88,96.65,99.72
2456.32,95.9,96.59,99.8
2452.59,95.86,96.57,99.83
2448.86,95.93,96.62,99.77
2445.13,95.9,96.74,99.85
2441.41,95.9,96.61,99.81
2437.68,95.93,96.68,99.79
2433.95,95.92,96.61,99.74
2430.22,95.95,96.66,99.85
2426.5,95.91,96.63,99.8
2422.77,95.91,96.63,99.72
2419.04,95.96,96.68,99.74
2415.31,95.82,96.69,99.7
2411.59,95.81,96.71,99.59
2407.86,95.86,96.65,99.6
2404.13,95.88,96.62,99.6
2400.41,95.8,96.66,99.58
2396.68,95.78,96.61,99.52
2392.95,95.81,96.6,99.54
2389.22,95.81,96.64,99.47
2385.5,95.81,96.63,99.46
2381.77,95.79,96.57,99.43
2378.04,95.78,96.63,99.44
2374.31,95.77,96.66,99.4
2370.59,95.86,96.7,99.4
2366.86,96,96.83,99.31
2363.13,96.16,96.82,99.28
2359.4,96.09,96.77,99.26
2355.68,95.97,96.8,99.16
2351.95,95.99,96.8,99.18
2348.22,95.87,96.61,99.46
2344.5,95.73,96.59,99.38
2340.77,95.92,96.73,99.37
2337.04,95.98,96.71,99.32
2333.31,95.94,96.65,99.37
2329.59,95.96,96.71,99.34
2325.86,95.6,96.53,99.21
2322.13,95.6,96.43,99.28
2318.4,95.77,96.49,99.37
2314.68,95.86,96.57,99.56
2310.95,95.87,96.67,99.56
2307.22,95.84,96.54,99.67
2303.49,95.88,96.69,99.68
2299.77,95.81,96.54,99.7
2296.04,95.8,96.58,99.79
2292.31,95.71,96.57,99.77
2288.59,95.66,96.51,99.74
2284.86,95.8,96.45,99.77
2281.13,95.88,96.49,99.95
2277.4,95.97,96.82,100.11
2273.68,96.01,96.79,100.15
2269.95,96.07,96.82,100.25
2266.22,96.28,96.75,100.34
2262.49,96.2,96.96,100.45
2258.77,96.09,96.85,100.53
2255.04,96.21,96.86,100.57
2251.31,96.31,96.94,100.5
2247.58,96.65,97.03,100.45
2243.86,96.46,97.02,100.43
2240.13,96.37,97.03,100.66
2236.4,96.35,96.93,100.61
2232.68,96.48,97.06,100.66
2228.95,96.66,97.18,100.61
2225.22,96.64,97.23,100.81
2221.49,96.78,97.1,100.79
2217.77,96.71,97.44,100.98
2214.04,96.85,97.19,100.84
2210.31,96.66,97.35,101.18
2206.584,96.86,97.27,101.16
2202.86,96.73,97.43,100.81
2199.13,96.69,97.27,100.92
2195.4,97.04,97.19,101.02
2191.67,96.96,97.44,101.08
2187.95,97.05,97.69,101.48
2184.22,97.15,97.58,101.16
2180.49,97.11,97.71,101.21
2176.77,97.05,97.56,101.27
2173.04,97.25,97.58,101.55
2169.31,96.78,97.68,101.79
2165.58,97.51,97.44,101.67
2161.86,97.06,96.98,101.7
2158.13,97.67,97.69,101.67
2154.4,97.54,98.06,101.19
2150.67,97.2,97.89,100.85
2146.95,97.26,97.46,100.97
2143.22,97.34,97.67,100.81
2139.49,97.14,97.58,100.61
2135.76,97.04,97.62,100.41
2132.04,96.93,97.61,100.24
2128.31,96.81,97.35,100.35
2124.58,96.48,97.31,100.09
2120.86,96.61,97.15,100.1
2117.13,96.36,96.97,100.23
2113.4,96.31,96.93,100.16
2109.67,96.27,96.94,100.12
2105.95,96.37,96.94,100.19
2102.22,96.56,97.02,100.1
2098.49,96.48,97.07,100.24
2094.76,96.54,97.19,100.27
2091.04,96.34,97.16,100.25
2087.31,96.4,97.14,100.23
2083.58,96.37,97.1,100.1
2079.85,96.52,97.03,100.2
2076.13,96.5,96.97,100.26
2072.4,96.63,97.13,100.36
2068.67,96.59,97.28,100.51
2064.95,96.69,97.14,100.56
2061.22,96.87,97.2,100.53
2057.49,96.79,97.5,100.62
2053.76,96.93,97.55,100.93
2050.04,97.04,97.18,100.95
2046.31,97.01,97.8,101.29
2042.58,97.61,97.78,101.49
2038.85,97.42,97.72,101.61
2035.13,97.23,97.68,101.59
2031.4,97.74,97.71,101.04
2027.67,97.52,97.94,101.05
2023.94,97.37,97.53,101
2020.22,97.5,97.78,100.7
2016.49,97.43,97.5,101.26
2012.76,97.2,97.65,101.23
2009.04,97.36,98.17,101.13
2005.31,97.63,97.67,100.85
2001.58,97.19,97.73,100.56
1997.85,97.11,97.62,100.58
1994.13,97.1,97.65,100.89
1990.4,97.16,97.7,100.78
1986.67,97.3,97.58,100.58
1982.94,96.83,97.45,101.2
1979.22,97.1,97.52,100.52
1975.49,97.2,97.89,101.32
1971.76,97.37,97.91,100.69
1968.03,97.59,97.7,100.62
1964.31,96.98,97.62,100.3
1960.58,96.92,97.47,100.21
1956.85,97.04,97.6,100.15
1953.13,96.93,97.46,99.8
1949.4,96.44,97.23,99.86
1945.67,96.63,97.47,99.95
1941.94,96.6,97.38,99.76
1938.22,96.8,97.28,99.7
1934.49,96.86,97.29,99.76
1930.761,96.83,97.34,99.75
1927.03,96.9,97.44,99.9
1923.31,96.87,97.26,99.9
1919.58,96.83,97.55,99.93
1915.85,96.98,97.53,99.85
1912.12,96.9,97.49,99.92
1908.4,97,97.57,99.98
1904.67,96.97,97.55,99.87
1900.94,97.06,97.51,99.83
1897.21,97.14,97.52,99.92
1893.49,97.08,97.53,99.9
1889.76,97.02,97.59,99.84
1886.03,97,97.57,99.82
1882.31,97.16,97.57,99.95
1878.58,97.15,97.66,99.86
1874.85,97.15,97.64,99.85
1871.12,97.09,97.58,100.06
1867.4,97.19,97.66,99.79
1863.67,97.18,97.65,99.78
1859.94,97.16,97.63,99.7
1856.21,97.07,97.64,99.67
1852.49,97.09,97.67,99.63
1848.76,97.03,97.56,99.59
1845.03,96.99,97.54,99.53
1841.3,96.98,97.57,99.27
1837.58,96.89,97.5,99.13
1833.85,96.82,97.41,99
1830.12,96.8,97.38,98.91
1826.4,96.82,97.47,98.82
1822.67,96.81,97.46,98.74
1818.94,96.83,97.46,98.82
1815.21,96.88,97.5,98.71
1811.49,96.82,97.49,98.68
1807.76,96.83,97.54,98.66
1804.03,96.89,97.51,98.67
1800.3,96.95,97.59,98.68
1796.58,97.01,97.62,98.54
1792.85,96.94,97.6,98.47
1789.12,96.99,97.67,98.27
1785.39,97.03,97.67,98.18
1781.67,96.99,97.71,98.13
1777.94,97.04,97.77,98
1774.21,96.99,97.74,97.88
1770.49,97.01,97.83,97.64
1766.76,96.98,97.81,97.24
1763.03,96.87,97.78,97.06
1759.3,96.72,97.63,96.66
1755.58,96.47,97.5,95.88
1751.85,95.88,97.1,94.99
1748.12,94.42,96.19,92.98
1744.39,92.11,94.64,89.63
1740.67,88.78,92.41,84.24
1736.94,85.08,89.99,77.14
1733.21,81.28,87.45,68.88
1729.48,77.77,85.06,61.44
1725.76,74.59,82.83,55.07
1722.03,71.55,80.61,49.31
1718.3,68.98,78.43,45.06
1714.58,66.82,76.66,41.79
1710.85,66.38,76.44,41.01
1707.12,67.46,77.3,43.22
1703.39,69.56,78.95,48.12
1699.67,72.94,81.17,55.82
1695.94,75.66,82.89,62.15
1692.21,77.89,84.38,67.51
1688.48,79.3,85.32,70.43
1684.76,80.12,85.8,72.01
1681.03,82.36,87.3,76.68
1677.3,82.69,87.51,76.89
1673.57,84.36,88.6,79.47
1669.85,85.01,89.14,80.59
1666.12,86.4,90.01,83.03
1662.39,87.08,90.53,84.01
1658.67,88.11,91.13,85.99
1654.938,87.29,90.64,85.12
1651.21,89.98,92.48,88.84
1647.48,89.4,92.04,88.49
1643.76,90.5,92.81,90.42
1640.03,90.39,92.71,90.75
1636.3,90.3,92.78,90.88
1632.57,91.51,93.55,92.7
1628.85,91.25,93.33,92.63
1625.12,91.42,93.53,93.05
1621.39,91.94,93.9,93.58
1617.66,91.44,93.55,93.11
1613.94,91.72,93.86,92.95
1610.21,91.64,93.72,93.1
1606.48,92.12,94.02,94
1602.76,92.52,94.29,94.73
1599.03,92.89,94.54,95.32
1595.3,93.11,94.69,95.67
1591.57,93.31,94.77,95.79
1587.85,93.28,94.76,95.73
1584.12,92.87,94.47,94.84
1580.39,91.8,93.87,92.11
1576.66,91.22,93.6,90.61
1572.94,92.39,94.31,92.9
1569.21,92.87,94.62,94.32
1565.48,93.54,94.96,95.54
1561.75,93.33,94.78,96
1558.03,94.01,95.42,95.98
1554.3,94.31,95.53,96.64
1550.57,94.27,95.46,96.85
1546.85,94.35,95.53,97.19
1543.12,94.3,95.5,97.31
1539.39,94.71,95.81,97.14
1535.66,94.73,95.79,97.36
1531.94,94.67,95.76,97.01
1528.21,94.5,95.66,96.9
1524.48,94.54,95.66,96.91
1520.75,94.71,95.83,96.93
1517.03,94.85,95.95,97.04
1513.3,94.8,95.9,96.89
1509.57,93.73,95.12,95.73
1505.84,91.44,93.59,91.08
1502.12,91.84,93.99,91.65
1498.39,93.47,95.04,95.1
1494.66,94.86,95.95,97.03
1490.94,94.93,95.96,97.45
1487.21,95.03,96.05,97.37
1483.48,94.61,95.73,97.02
1479.75,94.05,95.35,96.18
1476.03,93.21,94.73,95.02
1472.3,92.07,94,93.75
1468.57,92.17,94.15,92.48
1464.84,92.15,94.33,90.94
1461.12,91.75,94.15,89.54
1457.39,91.26,93.94,87.9
1453.66,91.36,94.01,85.9
1449.93,91.25,93.96,84.93
1446.21,91.65,94.25,86.35
1442.48,91.81,94.33,88.06
1438.75,91.91,94.41,89.25
1435.03,92.83,95.04,91.36
1431.3,93.58,95.45,93.13
1427.57,94.42,95.91,94.31
1423.84,94.72,96.05,94.58
1420.12,94.38,95.7,94.1
1416.39,92.41,94.27,91.3
1412.66,87.72,91.11,83.63
1408.93,83.68,88.71,74.21
1405.21,84.77,89.57,75.79
1401.48,87.77,91.55,82.12
1397.75,89.98,92.98,85.88
1394.02,91.27,93.79,87.46
1390.3,91.87,94.12,88.11
1386.57,92.17,94.26,88.69
1382.84,92.29,94.33,89.06
1379.115,92.16,94.34,88.26
1375.39,91.68,94.2,86.6
1371.66,91.34,94.01,85.49
1367.93,91.53,94.16,86.25
1364.21,92.53,94.77,89.3
1360.48,93.7,95.43,92.21
1356.75,94.02,95.61,93.3
1353.02,93.8,95.37,93.65
1349.3,92.57,94.28,93.44
1345.57,89.63,91.81,92.62
1341.84,85.98,88.75,91.15
1338.11,85.17,88.36,90.46
1334.39,88.28,91.05,91.6
1330.66,91.75,93.79,92.67
1326.93,93.35,95.06,92.3
1323.2,93.52,95.3,90.89
1319.48,93.15,95.18,89.24
1315.75,92.56,94.84,87.68
1312.02,91.8,94.42,86.35
1308.3,90.83,93.85,84.45
1304.57,89.9,93.25,82.13
1300.84,88.76,92.51,79.45
1297.11,86.87,91.28,75.08
1293.39,84.74,89.91,70.06
1289.66,82.76,88.59,66.07
1285.93,81,87.36,62.57
1282.2,79.48,86.14,58.77
1278.48,78.13,84.94,54.92
1274.75,76.87,83.7,51.28
1271.02,75.22,82.37,47.83
1267.29,73.09,80.9,44.21
1263.57,71.01,79.51,40.7
1259.84,69.47,78.45,38.42
1256.11,68.54,77.71,37.74
1252.39,67.66,76.92,37.01
1248.66,66.49,75.94,35.09
1244.93,65.18,75.03,32.56
1241.2,64.16,74.35,30.19
1237.48,63.8,74.19,29.02
1233.75,64.3,74.67,29.81
1230.02,65.56,75.61,32.83
1226.29,67.02,76.61,37.7
1222.57,68.58,77.6,43.01
1218.84,70.35,78.74,47.86
1215.11,72.35,80.07,52.99
1211.38,74.32,81.39,57.89
1207.66,76.14,82.6,62.27
1203.93,77.9,83.81,66.2
1200.2,79.61,84.98,69.74
1196.48,81.28,86.14,73.06
1192.75,82.89,87.26,76.15
1189.02,84.24,88.21,79.08
1185.29,85.24,88.91,81.24
1181.57,85.65,89.31,81.81
1177.84,85.51,89.39,80.6
1174.11,85.57,89.57,79.25
1170.38,86.56,90.27,80.35
1166.66,88.1,91.27,83.74
1162.93,89.14,91.93,85.97
1159.2,89.6,92.28,86.66
1155.47,89.63,92.34,86.02
1151.75,89.09,92.1,84.52
1148.02,88.1,91.56,82.46
1144.29,86.66,90.68,79.44
1140.57,84.76,89.35,75.71
1136.84,82.39,87.43,71.99
1133.11,79.7,85.06,68.29
1129.38,77.16,82.87,64.05
1125.66,74.96,81.21,58.58
1121.93,72.94,79.97,52.38
1118.2,71.62,79.29,47.53
1114.47,71.53,79.32,46.19
1110.75,71.74,79.27,48.05
1107.02,70.72,78.55,46.58
1103.292,68.66,77.26,40.79
1099.56,66.68,76.05,35.36
1095.84,65.3,75.21,31.74
1092.11,64.64,74.82,30.23
1088.38,64.61,74.8,30.29
1084.66,64.82,75.02,30.97
1080.93,65.44,75.47,32.36
1077.2,66.74,76.35,35.87
1073.47,68.51,77.53,41.05
1069.75,70.4,78.78,46.14
1066.02,72.21,79.95,50.65
1062.29,73.84,80.98,54.71
1058.56,75.19,81.92,58.11
1054.84,76.06,82.55,60.29
1051.11,76.39,82.89,60.79
1047.38,76.35,82.97,60
1043.65,76.27,83.06,59.09
1039.93,76.59,83.36,59.35
1036.2,77.34,83.91,60.92
1032.47,78.38,84.73,62.86
1028.75,79.41,85.44,64.92
1025.02,77.64,83.59,65.94
1021.29,73.46,80.31,57.82
1017.56,69.05,77.66,41.86
1013.84,69.19,78.06,40.99
1010.11,72.63,80.36,50.73
1006.38,75.26,81.99,57.86
1002.65,76.91,83.03,62.53
998.927,78.05,83.81,65.85
995.199,78.98,84.44,68.18
991.472,79.59,84.83,69.53
987.745,79.93,85.09,70.05
984.017,80.28,85.33,70.27
980.29,80.28,85.31,70.19
976.563,79.72,84.84,69.29
972.835,78.82,84.06,67.93
969.108,78.55,83.79,67.22
965.38,79.07,84.15,67.27
961.653,79.88,84.78,67.12
957.926,80.67,85.32,65.89
954.198,81.39,85.83,66
950.471,81.99,86.29,67.21
946.744,82.52,86.64,68.71
943.016,82.97,86.92,70.96
939.289,83.31,87.19,73.15
935.562,83.62,87.43,74.82
931.834,83.99,87.64,75.98
928.107,84.27,87.9,76.93
924.38,84.61,88.15,77.87
920.652,84.97,88.42,78.91
916.925,85.22,88.59,79.84
913.198,85.31,88.68,80.37
909.47,85.2,88.65,80.2
905.743,84.74,88.49,78.69
902.016,84.12,88.16,76.42
898.288,83.79,88,75.22
894.561,83.92,88.13,75.11
890.834,84.14,88.39,75.18
887.106,84.2,88.44,75.2
883.379,83.55,88.15,73.85
879.652,81.91,87.08,69.33
875.924,79.25,85.29,62.14
872.197,75.65,82.24,57.88
868.47,76.68,82.94,61.45
864.742,79.37,84.74,67.33
861.015,80.56,85.56,71.26
857.288,81.09,85.75,73.11
853.56,81.04,85.7,73.75
849.833,80.53,85.28,73.78
846.106,80.11,84.82,73.69
842.378,80.37,85.08,73.88
838.651,81.05,85.6,74.57
834.924,81.73,86.13,75.56
831.196,82.46,86.72,76.69
827.469,83.12,87.2,77.66
823.742,83.63,87.56,78.33
820.014,84.08,87.85,78.77
816.287,84.27,88.08,79.05
812.56,84.48,88.21,79.15
808.832,84.68,88.42,79.16
805.105,84.94,88.52,79.34
801.378,85.34,88.78,80.08
797.65,85.18,88.74,79.19
793.923,83.5,87.65,74.49
790.196,83.34,87.61,76.35
786.468,84.68,88.36,80.55
782.741,85.68,89.22,83.78
779.014,86.7,89.65,85.63
775.286,87.36,90.03,86.64
771.559,88.17,90.73,87.87
767.832,88.93,91.23,89.56
764.104,89.67,91.81,91.09
760.377,90.35,92.49,92.24
756.65,91.24,92.95,93.13
752.922,91.86,93.49,93.48
749.195,92.47,94.05,93.03
745.468,92.83,94.3,91.34
741.74,91.12,93.43,85.91
738.013,85.88,90.26,71.63
734.286,78.76,85.08,53.29
730.558,71.6,79.63,37.16
726.831,64.5,74.2,23.09
723.104,59.92,70.14,18.92
719.376,60.21,70.3,26.36
715.649,62.78,72.24,38.12
711.922,65.48,74.25,46.11
708.194,67.62,75.83,50.47
704.467,69.31,76.82,54.01
700.74,71.02,77.9,58.09
697.012,72.9,79.24,62.49
693.285,74.53,80.6,65.79
689.557,75.69,81.24,67.97
685.83,76.48,82.09,69.32
682.103,77.1,82.41,69.88
678.375,77.25,82.69,70.58
674.648,78.23,83.44,72.3
670.921,78.9,83.35,73.32
667.193,79.96,84.39,75.17
663.466,80.18,84.39,75.49
659.739,80.34,84.87,76.73
656.011,80.87,84.95,76.79
652.284,80.69,84.65,77.93
650.42,81.2,84.38,77.99