File: 4_community_and_isolates/a_growth_and_FTIR/corrected_spectra_r_WPET.txt
.wavelength	spc
650	2.09986
731	3.20992
812	1.62757
893	1.67299
974	2.58568
1055	2.98121
1136	2.17073
1217	3.76378
1298	1.14487
1379	0.573403
1460	0.591391
1541	0.321726
1622	0.801554
1703	4.10941
1784	-0.0329116
1865	-0.0110122
1946	0.074764
2027	0.031532
2108	0.211493
2189	0.11823
2270	0.271375
2351	0.363595
2432	0.393829
2513	0.441643
2594	0.484778
2675	0.529305
2756	0.573318
2837	0.627476
2918	0.724688
2999	0.751958
3080	0.697397
3161	0.658823
3242	0.679724
3323	0.700393
3404	0.761976
3485	0.725413
3566	0.805786
3647	0.824994
3728	0.809021
3809	0.841909
3890	0.88113
3971	0.900577
701	3.04548
782	0.98248
863	1.87472
944	1.51594
1025	2.30995
1106	3.33368
1187	1.36899
1268	2.85911
1349	0.524456
1430	0.147158
1511	0.268571
1592	0.326105
1673	1.6818
1754	0.0912109
1835	0.0162531
1916	0.0315025
1997	0.00175757
2078	0.193027
2159	0.0177308
2240	0.286942
2321	0.444477
2402	0.448293
2483	0.505999
2564	0.570036
2645	0.654531
2726	0.677879
2807	0.763103
2888	0.897681
2969	1.1172
3050	0.912092
3131	0.907288
3212	0.919351
3293	0.986908
3374	1.02559
3455	1.07602
3536	1.13275
3617	1.1763
3698	1.20109
3779	1.25774
3860	1.31552
3941	1.33122
671	2.04236
752	0.156994
833	1.63539
914	1.21077
995	2.11642
1076	3.68743
1157	0.709628
1238	4.25482
1319	0.298299
1400	0.915789
1481	0.21429
1562	0.326755
1643	0.862403
1724	3.24346
1805	0.0119867
1886	-0.00887814
1967	-0.0173713
2048	0.00415023
2129	0.175616
2210	0.204042
2291	0.368047
2372	0.419468
2453	0.448029
2534	0.514437
2615	0.580222
2696	0.62151
2777	0.690732
2858	0.796213
2939	0.886482
3020	0.837633
3101	0.859658
3182	0.849716
3263	0.890533
3344	0.944827
3425	1.03161
3506	1.03313
3587	1.08926
3668	1.09883
3749	1.15641
3830	1.17048
3911	1.23914
3992	1.2683
722	4.34554
803	0.987633
884	1.25128
965	2.07496
1046	2.41499
1127	2.88303
1208	2.63398
1289	1.72287
1370	0.503146
1451	0.527125
1532	0.129756
1613	0.593386
1694	2.82163
1775	0.00391055
1856	-0.0228223
1937	0.0596543
2018	-0.00695844
2099	0.188029
2180	0.135294
2261	0.283107
2342	0.400383
2423	0.445648
2504	0.501375
2585	0.567732
2666	0.627787
2747	0.689394
2828	0.753287
2909	0.932909
2990	0.964132
3071	0.909202
3152	0.87555
3233	0.924429
3314	0.969158
3395	0.992276
3476	1.04738
3557	1.10398
3638	1.16251
3719	1.17599
3800	1.23035
3881	1.2765
3962	1.3126
692	2.53803
773	0.716755
854	1.84815
935	1.45796
1016	3.57407
1097	4.17172
1178	1.31238
1259	3.77253
1340	1.75373
1421	0.18938
1502	0.544005
1583	0.511056
1664	1.37913
1745	0.682129
1826	0.0219203
1907	0.0142907
1988	0.00328139
2069	0.138257
2150	0.101617
2231	0.237114
2312	0.378124
2393	0.4407
2474	0.466886
2555	0.52157
2636	0.589649
2717	0.634907
2798	0.701428
2879	0.814595
2960	1.03304
3041	0.797469
3122	0.831116
3203	0.843304
3284	0.882145
3365	0.910869
3446	0.991664
3527	1.01241
3608	1.05533
3689	1.06141
3770	1.11169
3851	1.14161
3932	1.19922
662	2.41736
743	0.430964
824	1.86681
905	1.71522
986	2.44883
1067	3.70381
1148	1.11659
1229	4.60089
1310	0.592678
1391	0.626191
1472	0.625345
1553	0.375119
1634	0.94642
1715	4.54784
1796	0.0051825
1877	0.000149176
1958	0.0592168
2039	-0.0388716
2120	0.201623
2201	0.165734
2282	0.342141
2363	0.345475
2444	0.396167
2525	0.437547
2606	0.482088
2687	0.514371
2768	0.554624
2849	0.628479
2930	0.666153
3011	0.666918
3092	0.640736
3173	0.610582
3254	0.641409
3335	0.674173
3416	0.72952
3497	0.696509
3578	0.728085
3659	0.761602
3740	0.796935
3821	0.830239
3902	0.840165
3983	0.844104
713	3.7459
794	1.19747
875	2.00047
956	1.74765
1037	2.1502
1118	3.14788
1199	1.97518
1280	2.10832
1361	0.209142
1442	0.401075
1523	0.23392
1604	0.506626
1685	2.27847
1766	-0.0156913
1847	0.00668518
1928	0.0348419
2009	-0.0427331
2090	0.169243
2171	0.167608
2252	0.310338
2333	0.419263
2414	0.484524
2495	0.537068
2576	0.59745
2657	0.67476
2738	0.714885
2819	0.784841
2900	0.91738
2981	1.00956
3062	0.917016
3143	0.908911
3224	0.932917
3305	0.964627
3386	0.985439
3467	1.03327
3548	1.13188
3629	1.20402
3710	1.20726
3791	1.23622
3872	1.32939
3953	1.33393
683	1.86041
764	0.338005
845	1.66763
926	1.10068
1007	2.36806
1088	3.60501
1169	0.900962
1250	3.51097
1331	0.681983
1412	1.12165
1493	0.149854
1574	0.538994
1655	1.12305
1736	1.52907
1817	0.0684779
1898	0.011276
1979	-0.0292373
2060	0.122483
2141	0.13257
2222	0.219149
2303	0.423038
2384	0.496872
2465	0.493949
2546	0.571392
2627	0.671436
2708	0.711559
2789	0.78523
2870	0.906612
2951	1.11617
3032	0.91393
3113	0.968053
3194	0.9837
3275	1.03448
3356	1.05897
3437	1.17354
3518	1.16216
3599	1.26829
3680	1.33935
3761	1.37022
3842	1.46218
3923	1.47746
653	1.4449
734	1.81369
815	1.11506
896	1.22248
977	1.90155
1058	2.52855
1139	1.4868
1220	3.4624
1301	0.851734
1382	0.445633
1463	0.451034
1544	0.256741
1625	0.641743
1706	4.25309
1787	0.0261236
1868	0.00143965
1949	0.0639031
2030	-0.065395
2111	0.197465
2192	0.0654221
2273	0.316918
2354	0.382364
2435	0.448094
2516	0.502979
2597	0.572912
2678	0.637832
2759	0.699868
2840	0.786408
2921	0.882158
3002	0.936794
3083	0.912786
3164	0.88407
3245	0.930625
3326	0.958874
3407	1.0418
3488	1.04222
3569	1.14352
3650	1.2621
3731	1.26119
3812	1.25547
3893	1.30958
3974	1.34905
704	3.19344
785	1.07762
866	2.11442
947	1.57394
1028	2.01031
1109	3.32398
1190	1.52489
1271	2.77468
1352	0.24312
1433	0.255271
1514	0.18419
1595	0.409437
1676	1.93482
1757	0.0190741
1838	0.00598764
1919	0.0511383
2000	0.00596195
2081	0.182942
2162	0.0583392
2243	0.276748
2324	0.433413
2405	0.455446
2486	0.495362
2567	0.558192
2648	0.637262
2729	0.681944
2810	0.756632
2891	0.879519
2972	1.08436
3053	0.891238
3134	0.876874
3215	0.899168
3296	0.940265
3377	0.975266
3458	1.01507
3539	1.07409
3620	1.17259
3701	1.1538
3782	1.20776
3863	1.26444
3944	1.29045
674	2.22615
755	0.332687
836	1.8914
917	1.39346
998	2.40299
1079	4.18193
1160	0.839985
1241	4.63247
1322	0.30299
1403	1.3661
1484	0.203776
1565	0.446388
1646	0.97246
1727	3.04563
1808	0.00531558
1889	-0.00135104
1970	0.0198695
2051	0.0535091
2132	0.148183
2213	0.198484
2294	0.380436
2375	0.419784
2456	0.436525
2537	0.494507
2618	0.558592
2699	0.586747
2780	0.642469
2861	0.744468
2942	0.839648
3023	0.750959
3104	0.774868
3185	0.760895
3266	0.781766
3347	0.834226
3428	0.905146
3509	0.874625
3590	0.91093
3671	0.906162
3752	0.971683
3833	0.971057
3914	1.01954
3995	1.06288
725	4.31392
806	1.23672
887	1.34707
968	2.36621
1049	2.60439
1130	2.72244
1211	3.06897
1292	1.50144
1373	0.549549
1454	0.560197
1535	0.158044
1616	0.670395
1697	3.3077
1778	-0.021181
1859	-0.0279994
1940	0.0560447
2021	0.0113704
2102	0.192077
2183	0.155877
2264	0.301346
2345	0.401804
2426	0.425606
2507	0.473186
2588	0.535579
2669	0.587137
2750	0.643484
2831	0.704373
2912	0.857665
2993	0.880148
3074	0.833114
3155	0.800252
3236	0.834728
3317	0.881135
3398	0.91096
3479	0.915358
3560	0.972934
3641	1.01249
3722	1.02981
3803	1.09294
3884	1.11169
3965	1.16131
695	2.79047
776	0.895838
857	1.85107
938	1.58441
1019	3.41933
1100	3.91675
1181	1.35819
1262	3.45487
1343	1.55128
1424	0.0939746
1505	0.606583
1586	0.454105
1667	1.51703
1748	0.307947
1829	0.0205819
1910	0.0285555
1991	0.0240496
2072	0.163775
2153	0.0849421
2234	0.285977
2315	0.404403
2396	0.451767
2477	0.487695
2558	0.554302
2639	0.624866
2720	0.652673
2801	0.714776
2882	0.820312
2963	1.02187
3044	0.8036
3125	0.827624
3206	0.852903
3287	0.884679
3368	0.913335
3449	0.96745
3530	1.00643
3611	1.0348
3692	1.09502
3773	1.11841
3854	1.15786
3935	1.18106
665	1.96305
746	0.146501
827	1.58595
908	1.37231
989	2.16176
1070	3.4885
1151	0.916916
1232	4.28254
1313	0.493901
1394	0.590992
1475	0.486871
1556	0.279009
1637	0.849338
1718	4.08805
1799	0.0124529
1880	-0.0247869
1961	0.0348991
2042	0.0264709
2123	0.195054
2204	0.180849
2285	0.367474
2366	0.363305
2447	0.44425
2528	0.504138
2609	0.548822
2690	0.592006
2771	0.640266
2852	0.731031
2933	0.803555
3014	0.801435
3095	0.788897
3176	0.776989
3257	0.81483
3338	0.861966
3419	0.925155
3500	0.898884
3581	0.961048
3662	1.00144
3743	1.01891
3824	1.088
3905	1.13099
3986	1.12892
716	3.86537
797	1.00183
878	1.50761
959	1.73623
1040	2.16143
1121	2.98912
1202	2.11683
1283	1.83869
1364	0.293602
1445	0.383349
1526	0.138535
1607	0.490308
1688	2.34174
1769	0.00630111
1850	-0.00814828
1931	0.0275122
2012	-0.0142413
2093	0.182766
2174	0.135286
2255	0.31957
2336	0.404902
2417	0.478902
2498	0.537107
2579	0.599772
2660	0.677079
2741	0.742402
2822	0.803596
2903	0.984897
2984	1.04199
3065	0.962799
3146	0.949502
3227	0.998271
3308	1.04344
3389	1.09283
3470	1.1409
3551	1.21184
3632	1.32689
3713	1.30018
3794	1.32788
3875	1.4231
3956	1.44564
686	2.38704
767	0.608904
848	2.0241
929	1.45792
1010	3.11836
1091	4.30595
1172	1.2137
1253	4.01657
1334	1.13601
1415	0.833005
1496	0.224319
1577	0.650315
1658	1.33905
1739	1.35107
1820	0.00642744
1901	-0.00844414
1982	0.0217589
2063	0.115975
2144	0.149667
2225	0.252192
2306	0.381641
2387	0.437183
2468	0.465924
2549	0.522466
2630	0.59278
2711	0.617445
2792	0.680289
2873	0.776032
2954	0.955322
3035	0.763667
3116	0.80695
3197	0.80675
3278	0.849122
3359	0.875903
3440	0.963424
3521	0.957317
3602	1.00962
3683	1.05231
3764	1.08594
3845	1.13219
3926	1.15828
656	1.45599
737	1.22824
818	1.16687
899	1.28259
980	1.95328
1061	2.78761
1142	1.34536
1223	3.76227
1304	0.789288
1385	0.465056
1466	0.459271
1547	0.228634
1628	0.670148
1709	4.43496
1790	0.00040031
1871	-0.0238176
1952	0.0621576
2033	-0.044602
2114	0.211849
2195	0.174722
2276	0.347889
2357	0.359267
2438	0.451362
2519	0.51035
2600	0.569876
2681	0.62148
2762	0.673912
2843	0.74903
2924	0.828363
3005	0.881413
3086	0.85814
3167	0.833834
3248	0.878832
3329	0.932462
3410	0.98765
3491	0.985307
3572	1.07982
3653	1.16884
3734	1.15112
3815	1.15944
3896	1.20229
3977	1.26482
707	3.15723
788	1.05012
869	2.22672
950	1.46108
1031	1.83742
1112	3.1793
1193	1.58885
1274	2.5228
1355	0.181144
1436	0.342954
1517	0.0783204
1598	0.354784
1679	1.99653
1760	0.0711858
1841	0.00529518
1922	0.0274936
2003	-0.0309056
2084	0.182712
2165	0.0861783
2246	0.28138
2327	0.406675
2408	0.46217
2489	0.502836
2570	0.567933
2651	0.652151
2732	0.704448
2813	0.781346
2894	0.936769
2975	1.15893
3056	0.965969
3137	0.92779
3218	0.963836
3299	1.01172
3380	1.06224
3461	1.08966
3542	1.17212
3623	1.23631
3704	1.22719
3785	1.31189
3866	1.34431
3947	1.40371
677	1.81228
758	0.154651
839	1.43541
920	0.944228
1001	1.88262
1082	3.3124
1163	0.521387
1244	3.49944
1325	0.225557
1406	1.35116
1487	0.227862
1568	0.625236
1649	1.26242
1730	1.86906
1811	0.0199028
1892	0.0157237
1973	-0.0626271
2054	0.0822582
2135	0.119905
2216	0.200127
2297	0.418532
2378	0.510469
2459	0.496923
2540	0.594258
2621	0.67831
2702	0.738135
2783	0.816377
2864	0.889049
2945	0.98028
3026	1.02179
3107	1.10606
3188	1.17445
3269	1.27553
3350	1.25106
3431	1.28953
3512	1.22361
3593	1.23492
3674	1.30267
3755	1.38556
3836	1.34319
3917	1.37387
3998	1.43023
728	3.38907
809	1.07103
890	1.17975
971	2.14777
1052	2.3879
1133	2.05216
1214	2.98065
1295	1.05039
1376	0.423802
1457	0.488633
1538	0.347582
1619	0.751325
1700	3.32103
1781	-0.0104174
1862	-0.0100456
1943	0.0547105
2024	0.00122047
2105	0.205667
2186	0.105815
2267	0.332346
2348	0.462452
2429	0.487093
2510	0.544486
2591	0.601526
2672	0.675805
2753	0.739523
2834	0.763485
2915	0.540858
2996	0.919653
3077	0.927356
3158	0.926055
3239	0.953432
3320	1.00373
3401	1.0218
3482	1.04429
3563	1.14156
3644	1.18967
3725	1.24688
3806	1.33748
3887	1.383
3968	1.3566
698	2.8227
779	0.827254
860	1.69913
941	1.47038
1022	2.72787
1103	3.48285
1184	1.2303
1265	2.99672
1346	0.885289
1427	0.110233
1508	0.601871
1589	0.483656
1670	1.65778
1751	0.0896649
1832	0.045561
1913	0.0442572
1994	0.00148161
2075	0.148637
2156	0.00282436
2237	0.263799
2318	0.468158
2399	0.475629
2480	0.507405
2561	0.566058
2642	0.66325
2723	0.710577
2804	0.781742
2885	0.794023
2966	0.952688
3047	0.90085
3128	0.927793
3209	0.946287
3290	0.982699
3371	1.00404
3452	1.05198
3533	1.08772
3614	1.23687
3695	1.23821
3776	1.27709
3857	1.38528
3938	1.34524
668	1.82906
749	0.0135517
830	1.43876
911	1.10998
992	1.94018
1073	3.49562
1154	0.660241
1235	4.25825
1316	0.286736
1397	0.669927
1478	0.264524
1559	0.282722
1640	0.817045
1721	3.55944
1802	0.00417653
1883	-0.00690007
1964	0.0452314
2045	-0.0271391
2126	0.191913
2207	0.18859
2288	0.383603
2369	0.437514
2450	0.465983
2531	0.535308
2612	0.597572
2693	0.64785
2774	0.720521
2855	0.82103
2936	0.905405
3017	0.903008
3098	0.916906
3179	0.911256
3260	0.947944
3341	0.998716
3422	1.10118
3503	1.06769
3584	1.1166
3665	1.17353
3746	1.19388
3827	1.26948
3908	1.30588
3989	1.33863
719	4.80896
800	1.29089
881	1.58543
962	2.29248
1043	2.63209
1124	3.35517
1205	2.69986
1286	1.90872
1367	0.489956
1448	0.539874
1529	0.238955
1610	0.730599
1691	2.76793
1772	-0.0478088
1853	-0.0269133
1934	0.0682505
2015	0.00920029
2096	0.189876
2177	0.12822
2258	0.314495
2339	0.385347
2420	0.42226
2501	0.469185
2582	0.518791
2663	0.573776
2744	0.617023
2825	0.670386
2906	0.8421
2987	0.855405
3068	0.789286
3149	0.764969
3230	0.79231
3311	0.844937
3392	0.858304
3473	0.887952
3554	0.914167
3635	0.967717
3716	0.950571
3797	0.976108
3878	1.00974
3959	1.05641
689	2.1739
770	0.435029
851	1.72989
932	1.29553
1013	3.03194
1094	3.70854
1175	0.898943
1256	3.30629
1337	1.4276
1418	0.220733
1499	0.281382
1580	0.315736
1661	0.973773
1742	0.785509
1823	0.23217
1904	0.169698
1985	0.155428
2066	0.259112
2147	0.234278
2228	0.414928
2309	0.618018
2390	0.628285
2471	0.647859
2552	0.687156
2633	0.765939
2714	0.780462
2795	0.781325
2876	0.595926
2957	0.576323
3038	0.838745
3119	0.874071
3200	0.782498
3281	0.735913
3362	0.847447
3443	0.993122
3524	1.18235
3605	1.38723
3686	1.50363
3767	1.5666
3848	1.60217
3929	1.64565
659	1.88174
740	0.653827
821	1.46806
902	1.45694
983	2.09804
1064	3.18574
1145	1.14461
1226	4.18513
1307	0.6312
1388	0.505993
1469	0.516746
1550	0.205579
1631	0.733705
1712	4.69525
1793	-0.017874
1874	-0.0307868
1955	0.036071
2036	0.0184149
2117	0.208408
2198	0.156853
2279	0.34015
2360	0.392495
2441	0.4271
2522	0.476208
2603	0.535377
2684	0.573443
2765	0.62727
2846	0.682022
2927	0.703213
3008	0.804386
3089	0.775891
3170	0.756697
3251	0.790294
3332	0.823865
3413	0.894104
3494	0.884488
3575	0.933312
3656	0.999861
3737	1.02485
3818	1.04978
3899	1.09131
3980	1.13068
710	4.01524
791	1.43929
872	2.60895
953	1.91241
1034	2.26005
1115	3.58936
1196	2.01822
1277	2.59195
1358	0.164428
1439	0.362616
1520	0.130562
1601	0.423026
1682	2.20867
1763	-0.0282455
1844	-0.00505226
1925	0.0256263
2006	0.00643748
2087	0.192855
2168	0.114875
2249	0.256487
2330	0.401923
2411	0.432363
2492	0.454864
2573	0.513642
2654	0.593482
2735	0.629725
2816	0.680071
2897	0.783651
2978	0.926156
3059	0.807663
3140	0.778665
3221	0.795224
3302	0.845495
3383	0.875578
3464	0.92992
3545	0.999551
3626	1.05485
3707	1.06754
3788	1.10386
3869	1.15243
3950	1.181
680	2.30287
761	0.433564
842	2.08126
923	1.38575
1004	2.66595
1085	4.48791
1166	0.975272
1247	4.5727
1328	0.437754
1409	1.78202
1490	0.095018
1571	0.447637
1652	1.14662
1733	2.51595
1814	0.0149266
1895	-0.01896
1976	-0.0371857
2057	0.0627325
2138	0.107157
2219	0.166491
2300	0.330566
2381	0.390642
2462	0.405411
2543	0.471996
2624	0.525229
2705	0.561607
2786	0.615973
2867	0.709171
2948	0.867497
3029	0.726192
3110	0.76128
3191	0.733783
3272	0.770645
3353	0.81233
3434	0.904678
3515	0.891648
3596	0.955499
3677	0.998757
3758	1.01718
3839	1.05367
3920	1.08079
650	1.48605
731	2.69959
812	1.17011
893	1.27443
974	2.12981
1055	2.53613
1136	1.69881
1217	3.2947
1298	0.929686
1379	0.387362
1460	0.450285
1541	0.25481
1622	0.639141
1703	3.8541
1784	-0.00378192
1865	0.00338537
1946	0.0568895
2027	-0.000256277
2108	0.209314
2189	0.146188
2270	0.331633
2351	0.471132
2432	0.460282
2513	0.515542
2594	0.595755
2675	0.642771
2756	0.70357
2837	0.75707
2918	0.769038
2999	0.891536
3080	0.894944
3161	0.856594
3242	0.907492
3323	0.929176
3404	0.981612
3485	1.00094
3566	1.12798
3647	1.21816
3728	1.20715
3809	1.24943
3890	1.32226
3971	1.32273
701	3.07393
782	0.97199
863	1.91686
944	1.5681
1025	2.36475
1106	3.45344
1187	1.40374
1268	2.96257
1349	0.519674
1430	0.150197
1511	0.299554
1592	0.379382
1673	1.7866
1754	0.0729914
1835	0.00713944
1916	0.0234419
1997	-0.00545639
2078	0.168876
2159	0.0665368
2240	0.249047
2321	0.457474
2402	0.455273
2483	0.492472
2564	0.551864
2645	0.63043
2726	0.673614
2807	0.752192
2888	0.855108
2969	1.06873
3050	0.883611
3131	0.875505
3212	0.897488
3293	0.938604
3374	0.98361
3455	1.02278
3536	1.06007
3617	1.15482
3698	1.13579
3779	1.19752
3860	1.25599
3941	1.28165
671	2.05184
752	0.116928
833	1.62289
914	1.22391
995	2.11881
1076	3.69269
1157	0.654059
1238	4.26309
1319	0.226624
1400	0.890856
1481	0.200023
1562	0.382126
1643	0.904589
1724	3.1224
1805	0.00960582
1886	0.0118772
1967	0.0226109
2048	0.0176169
2129	0.179113
2210	0.207318
2291	0.414801
2372	0.468862
2453	0.485091
2534	0.536673
2615	0.607143
2696	0.649034
2777	0.713039
2858	0.788087
2939	0.860856
3020	0.837542
3101	0.875124
3182	0.86753
3263	0.896326
3344	0.941784
3425	1.03206
3506	1.01258
3587	1.0912
3668	1.13102
3749	1.18755
3830	1.19142
3911	1.23504
3992	1.27471
722	4.38195
803	1.02015
884	1.23988
965	2.13379
1046	2.41873
1127	2.95488
1208	2.73093
1289	1.65708
1370	0.484763
1451	0.482645
1532	0.132261
1613	0.615767
1694	2.95368
1775	0.00814148
1856	-0.0325459
1937	0.0546925
2018	-0.00823483
2099	0.185513
2180	0.0862922
2261	0.304076
2342	0.442529
2423	0.436604
2504	0.494371
2585	0.559345
2666	0.621626
2747	0.677835
2828	0.73117
2909	0.876156
2990	0.936032
3071	0.890235
3152	0.856288
3233	0.887746
3314	0.930273
3395	0.965547
3476	1.00595
3557	1.10664
3638	1.16635
3719	1.17337
3800	1.22279
3881	1.27162
3962	1.30256
692	2.35519
773	0.58086
854	1.72581
935	1.3328
1016	3.49822
1097	4.09087
1178	1.2392
1259	3.71608
1340	1.81771
1421	0.13143
1502	0.554569
1583	0.432245
1664	1.3461
1745	0.705808
1826	0.0520611
1907	0.0055326
1988	-0.0188971
2069	0.112325
2150	0.11205
2231	0.219895
2312	0.398529
2393	0.43124
2474	0.462832
2555	0.521165
2636	0.599722
2717	0.645742
2798	0.72131
2879	0.840563
2960	1.08239
3041	0.835021
3122	0.864508
3203	0.878444
3284	0.912237
3365	0.949667
3446	1.03084
3527	1.06888
3608	1.14697
3689	1.17804
3770	1.21108
3851	1.26005
3932	1.30188
662	1.53608
743	0.116025
824	1.24334
905	1.20002
986	1.90238
1067	3.13576
1148	0.920118
1229	4.08232
1310	0.552489
1391	0.479892
1472	0.489599
1553	0.16057
1634	0.716611
1715	4.46463
1796	0.0393313
1877	-0.0241802
1958	0.0395066
2039	-0.0176532
2120	0.197543
2201	0.167236
2282	0.359631
2363	0.46672
2444	0.444959
2525	0.51569
2606	0.576339
2687	0.629309
2768	0.686776
2849	0.736741
2930	0.770027
3011	0.879595
3092	0.852573
3173	0.839726
3254	0.876616
3335	0.916057
3416	0.988194
3497	0.997918
3578	1.07989
3659	1.1622
3740	1.2442
3821	1.27126
3902	1.32898
3983	1.32121
713	4.16253
794	1.38456
875	2.23639
956	1.96848
1037	2.38328
1118	3.48048
1199	2.18721
1280	2.31662
1361	0.246789
1442	0.452779
1523	0.217418
1604	0.576548
1685	2.38035
1766	-0.0588231
1847	-0.0130237
1928	0.044502
2009	0.015401
2090	0.181613
2171	0.182292
2252	0.297493
2333	0.389713
2414	0.444761
2495	0.493851
2576	0.540542
2657	0.606514
2738	0.6465
2819	0.702947
2900	0.840919
2981	0.92571
3062	0.820191
3143	0.80025
3224	0.824463
3305	0.850889
3386	0.872123
3467	0.903096
3548	0.979776
3629	1.00949
3710	1.0145
3791	1.05612
3872	1.11091
3953	1.12389
683	2.60202
764	0.679631
845	2.2277
926	1.58816
1007	2.98099
1088	4.44346
1169	1.16252
1250	4.23609
1331	0.701113
1412	1.31417
1493	0.17741
1574	0.639213
1655	1.28881
1736	1.65377
1817	0.013192
1898	0.016275
1979	0.0439664
2060	0.13231
2141	0.153343
2222	0.22894
2303	0.359294
2384	0.424849
2465	0.441915
2546	0.503903
2627	0.565265
2708	0.588954
2789	0.638716
2870	0.739423
2951	0.895063
3032	0.721057
3113	0.747847
3194	0.744367
3275	0.782047
3356	0.812672
3437	0.8878
3518	0.858685
3599	0.8894
3680	0.931521
3761	0.94224
3842	0.990328
3923	1.012
653	1.52326
734	1.812
815	1.1604
896	1.26097
977	1.95403
1058	2.56467
1139	1.38434
1220	3.47722
1301	0.724702
1382	0.35572
1463	0.360272
1544	0.219586
1625	0.604232
1706	4.12445
1787	-0.00167541
1868	0.0181538
1949	0.0431223
2030	-0.0229072
2111	0.223179
2192	0.148895
2273	0.357181
2354	0.488574
2435	0.483775
2516	0.543589
2597	0.598856
2678	0.665841
2759	0.725415
2840	0.776886
2921	0.762986
3002	0.921751
3083	0.902295
3164	0.863175
3245	0.891823
3326	0.926479
3407	0.999048
3488	1.0317
3569	1.16133
3650	1.27543
3731	1.24796
3812	1.25983
3893	1.33592
3974	1.3579
4000	1.36598