File: 4_community_and_isolates/a_growth_and_FTIR/corrected_spectra_r_LC.txt
.wavelength	spc
650	1.10016
731	3.61735
812	1.13673
893	1.33841
974	1.89371
1055	2.59793
1136	1.70869
1217	3.3245
1298	1.35541
1379	0.690471
1460	0.737644
1541	0.283229
1622	0.649903
1703	3.82525
1784	0.074931
1865	0.00990041
1946	0.0681813
2027	-0.0230512
2108	0.107278
2189	0.0423375
2270	0.19992
2351	0.290324
2432	0.336113
2513	0.402888
2594	0.460034
2675	0.551258
2756	0.633644
2837	0.922341
2918	1.66532
2999	0.873547
3080	0.891858
3161	0.920569
3242	1.02708
3323	1.09741
3404	1.13272
3485	1.07788
3566	1.0742
3647	1.04209
3728	1.03513
3809	1.07907
3890	1.12277
3971	1.16182
701	2.50601
782	0.715473
863	1.79148
944	1.73485
1025	2.26038
1106	3.54055
1187	1.24721
1268	3.58094
1349	0.276007
1430	0.356129
1511	0.30419
1592	0.386167
1673	1.618
1754	0.309354
1835	0.0557564
1916	0.0420282
1997	-0.0106448
2078	0.0803795
2159	-0.0310069
2240	0.153122
2321	0.296733
2402	0.333175
2483	0.361556
2564	0.430084
2645	0.519629
2726	0.593771
2807	0.72812
2888	1.27475
2969	1.19274
3050	0.845453
3131	0.860073
3212	0.928634
3293	1.00869
3374	1.03732
3455	1.03586
3536	1.02923
3617	1.04444
3698	0.987333
3779	1.03838
3860	1.09949
3941	1.132
671	1.54587
752	-0.0391887
833	1.3053
914	1.02843
995	1.99823
1076	4.2104
1157	0.729547
1238	4.66234
1319	0.479809
1400	1.06483
1481	0.140426
1562	0.378524
1643	0.749432
1724	3.21645
1805	0.0783219
1886	0.0397647
1967	-0.0326727
2048	-0.0302274
2129	0.120032
2210	0.0928115
2291	0.27792
2372	0.360308
2453	0.37493
2534	0.429683
2615	0.510465
2696	0.583943
2777	0.68194
2858	1.41642
2939	1.60389
3020	0.806182
3101	0.861664
3182	0.897442
3263	0.968631
3344	1.02026
3425	1.06845
3506	1.03096
3587	1.02818
3668	1.01538
3749	1.07613
3830	1.08805
3911	1.12538
3992	1.16867
722	5.53921
803	1.06836
884	1.47991
965	2.07124
1046	2.67719
1127	2.49767
1208	2.57552
1289	2.13611
1370	0.805164
1451	0.9441
1532	0.246109
1613	0.545926
1694	2.5905
1775	0.133507
1856	0.0241203
1937	0.0638528
2018	-0.0544075
2099	0.111423
2180	0.0301783
2261	0.178124
2342	0.285572
2423	0.344036
2504	0.403508
2585	0.453754
2666	0.548734
2747	0.619674
2828	0.771141
2909	1.24949
2990	0.86243
3071	0.846502
3152	0.852201
3233	0.91987
3314	0.975098
3395	0.983638
3476	0.996263
3557	1.04378
3638	1.0664
3719	1.06611
3800	1.11637
3881	1.16322
3962	1.17754
692	1.79782
773	0.444025
854	1.51419
935	1.45209
1016	3.87597
1097	4.56917
1178	1.35434
1259	4.3784
1340	0.535863
1421	0.322876
1502	0.575921
1583	0.533203
1664	1.26118
1745	0.942262
1826	0.0986209
1907	0.0258734
1988	-0.0229698
2069	0.0516401
2150	0.054
2231	0.119488
2312	0.253529
2393	0.32602
2474	0.339589
2555	0.402436
2636	0.476506
2717	0.540821
2798	0.650149
2879	1.07601
2960	1.30668
3041	0.727875
3122	0.7739
3203	0.813255
3284	0.878506
3365	0.909897
3446	0.991388
3527	1.00239
3608	1.0039
3689	1.0055
3770	1.02893
3851	1.08983
3932	1.12068
662	1.18778
743	0.399039
824	1.18749
905	1.22704
986	1.8693
1067	3.37788
1148	1.14012
1229	4.51719
1310	0.908008
1391	0.789261
1472	0.41442
1553	0.216649
1634	0.668002
1715	4.63566
1796	0.104083
1877	0.00227236
1958	0.0324168
2039	-0.0889166
2120	0.097957
2201	0.0755257
2282	0.220849
2363	0.274606
2444	0.314342
2525	0.389994
2606	0.44577
2687	0.515497
2768	0.598289
2849	1.20681
2930	1.70823
3011	0.774298
3092	0.792452
3173	0.80731
3254	0.885438
3335	0.932077
3416	1.01624
3497	0.973419
3578	0.994719
3659	1.01194
3740	1.04258
3821	1.08017
3902	1.1267
3983	1.14477
713	3.19994
794	1.19423
875	2.20197
956	1.93465
1037	2.39518
1118	3.21923
1199	1.78599
1280	2.67657
1361	0.452886
1442	0.805375
1523	0.322731
1604	0.541374
1685	2.10608
1766	0.195514
1847	0.0554215
1928	0.0413139
2009	-0.0390155
2090	0.092845
2171	0.00514156
2252	0.159004
2333	0.279255
2414	0.336656
2495	0.385056
2576	0.454189
2657	0.553266
2738	0.629566
2819	0.776666
2900	1.3032
2981	1.02215
3062	0.913347
3143	0.924586
3224	1.02923
3305	1.09668
3386	1.12271
3467	1.12306
3548	1.13943
3629	1.13863
3710	1.08558
3791	1.11837
3872	1.2163
3953	1.22692
683	1.67799
764	0.155033
845	1.40356
926	1.18928
1007	2.66476
1088	4.25833
1169	1.09161
1250	3.94781
1331	0.316938
1412	1.21406
1493	0.172953
1574	0.655446
1655	1.0847
1736	1.8102
1817	0.0907461
1898	0.0473956
1979	-0.0349495
2060	0.0297525
2141	0.0873773
2222	0.114273
2303	0.286212
2384	0.365795
2465	0.382779
2546	0.446298
2627	0.535554
2708	0.604948
2789	0.712707
2870	1.1556
2951	1.39146
3032	0.828274
3113	0.896489
3194	0.969075
3275	1.0484
3356	1.07087
3437	1.14052
3518	1.07443
3599	1.07809
3680	1.09856
3761	1.13443
3842	1.21776
3923	1.22913
653	1.10025
734	2.28808
815	0.935449
896	1.17082
977	1.65333
1058	2.49904
1139	1.2485
1220	3.40897
1301	0.924049
1382	0.550861
1463	0.590026
1544	0.432295
1625	0.696104
1706	3.84714
1787	0.072521
1868	0.0408355
1949	0.0166701
2030	-0.138814
2111	0.103081
2192	-0.0348008
2273	0.214756
2354	0.326035
2435	0.384212
2516	0.452686
2597	0.531851
2678	0.645041
2759	0.75025
2840	1.16926
2921	1.91387
3002	0.929804
3083	0.971543
3164	1.01313
3245	1.11857
3326	1.15451
3407	1.17952
3488	1.13299
3569	1.17794
3650	1.22689
3731	1.20203
3812	1.21174
3893	1.27364
3974	1.28768
704	2.98198
785	0.93228
866	2.16752
947	1.90875
1028	2.14034
1109	3.36095
1190	1.36645
1271	3.22545
1352	0.231238
1433	0.461662
1514	0.147479
1595	0.445127
1676	1.63038
1757	0.184376
1838	0.0257519
1919	0.0269557
2000	-0.0234225
2081	0.0978604
2162	-0.0377572
2243	0.16175
2324	0.307925
2405	0.337391
2486	0.369952
2567	0.448311
2648	0.539391
2729	0.610172
2810	0.74996
2891	1.32994
2972	1.10179
3053	0.881925
3134	0.894499
3215	0.985339
3296	1.04965
3377	1.07794
3458	1.06297
3539	1.03798
3620	1.01908
3701	0.985957
3782	1.0347
3863	1.07724
3944	1.12213
674	1.88283
755	0.0155501
836	1.47076
917	1.15759
998	2.25718
1079	4.53933
1160	0.691526
1241	4.60821
1322	0.345391
1403	1.24532
1484	0.0876961
1565	0.382647
1646	0.766297
1727	2.66985
1808	0.0192416
1889	-0.00305405
1970	-0.042785
2051	0.039631
2132	0.103973
2213	0.122962
2294	0.270372
2375	0.342621
2456	0.366945
2537	0.435812
2618	0.510295
2699	0.578845
2780	0.682692
2861	1.19405
2942	1.38806
3023	0.808599
3104	0.875338
3185	0.945148
3266	1.03766
3347	1.07398
3428	1.10045
3509	1.03494
3590	0.989929
3671	0.963921
3752	1.0301
3833	1.03484
3914	1.09495
3995	1.14815
725	4.54738
806	0.967641
887	1.19563
968	1.78536
1049	2.31118
1130	1.92249
1211	2.52021
1292	1.66411
1373	0.841423
1454	0.982639
1535	0.411406
1616	0.715779
1697	2.73053
1778	0.179319
1859	0.0703833
1940	0.0813824
2021	-0.036933
2102	0.127181
2183	0.0451306
2264	0.21027
2345	0.316948
2426	0.379952
2507	0.439868
2588	0.498358
2669	0.604715
2750	0.684858
2831	0.886017
2912	1.51192
2993	0.945025
3074	0.953359
3155	0.994804
3236	1.09473
3317	1.16329
3398	1.17273
3479	1.15411
3560	1.14533
3641	1.11058
3722	1.14693
3803	1.18349
3884	1.22748
3965	1.23001
695	2.11971
776	0.555455
857	1.5769
938	1.58462
1019	3.53033
1100	4.36825
1181	1.23343
1262	4.1825
1343	0.418444
1424	0.243753
1505	0.553206
1586	0.471805
1667	1.38864
1748	0.522056
1829	0.042742
1910	0.0144035
1991	-0.00441463
2072	0.0577079
2153	0.0498564
2234	0.131133
2315	0.259849
2396	0.321581
2477	0.347301
2558	0.410771
2639	0.490341
2720	0.555562
2801	0.674142
2882	1.10613
2963	1.21776
3044	0.775247
3125	0.827052
3206	0.899322
3287	0.988313
3368	1.02047
3449	1.04429
3530	1.00725
3611	0.980219
3692	0.929542
3773	0.970597
3854	1.00137
3935	1.04743
665	1.41924
746	0.0518674
827	1.22409
908	1.08983
989	1.88344
1070	3.62617
1151	0.849044
1232	4.52789
1313	0.647624
1394	0.73787
1475	0.283494
1556	0.314879
1637	0.758002
1718	3.73482
1799	0.0499507
1880	-0.00165422
1961	-0.000393549
2042	-0.0291589
2123	0.121584
2204	0.0849249
2285	0.254328
2366	0.314945
2447	0.353777
2528	0.419478
2609	0.489567
2690	0.565117
2771	0.655176
2852	1.35479
2933	1.631
3014	0.827163
3095	0.883619
3176	0.948973
3257	1.03794
3338	1.10356
3419	1.14039
3500	1.06559
3581	1.02306
3662	1.00623
3743	1.00971
3824	1.08279
3905	1.13399
3986	1.15194
716	4.75779
797	1.20398
878	1.93232
959	2.05966
1040	2.58508
1121	2.86431
1202	2.04069
1283	2.20716
1364	0.49494
1445	0.727381
1526	0.270192
1607	0.575604
1688	1.97015
1769	0.0626932
1850	0.0129492
1931	0.0233888
2012	-0.0242376
2093	0.102271
2174	0.0791788
2255	0.175571
2336	0.317742
2417	0.364119
2498	0.417957
2579	0.484365
2660	0.588262
2741	0.65823
2822	0.811921
2903	1.2454
2984	0.940193
3065	0.918029
3146	0.959808
3227	1.06297
3308	1.14868
3389	1.13224
3470	1.11959
3551	1.0823
3632	1.07857
3713	1.05604
3794	1.08636
3875	1.15187
3956	1.19768
686	1.9062
767	0.278101
848	1.33021
929	1.19005
1010	3.02537
1091	3.97315
1172	0.99502
1253	3.41991
1334	0.309548
1415	0.613641
1496	0.309415
1577	0.79543
1658	1.15454
1739	0.86233
1820	0.0201524
1901	0.00984985
1982	-0.0391714
2063	0.0546414
2144	0.0901864
2225	0.162197
2306	0.317906
2387	0.387742
2468	0.437222
2549	0.50198
2630	0.60754
2711	0.68652
2792	0.806807
2873	1.12908
2954	1.29416
3035	0.970787
3116	1.064
3197	1.20501
3278	1.32585
3359	1.30118
3440	1.2902
3521	1.16831
3602	1.12465
3683	1.09562
3764	1.13059
3845	1.20753
3926	1.23697
656	1.37626
737	1.44787
818	0.991111
899	1.11288
980	1.57317
1061	2.57327
1142	0.947032
1223	3.33678
1304	0.711839
1385	0.561063
1466	0.48917
1547	0.550724
1628	0.833023
1709	3.02203
1790	0.0398698
1871	0.0139288
1952	0.0507135
2033	-0.0526428
2114	0.139677
2195	0.0967789
2276	0.277877
2357	0.370429
2438	0.412105
2519	0.483729
2600	0.569469
2681	0.66039
2762	0.763238
2843	1.1392
2924	1.54883
3005	0.986373
3086	1.07677
3167	1.16458
3248	1.31987
3329	1.36443
3410	1.33865
3491	1.23221
3572	1.17936
3653	1.14543
3734	1.14259
3815	1.17551
3896	1.24307
3977	1.28295
707	3.18821
788	1.08085
869	2.19845
950	1.82257
1031	2.08766
1112	2.88339
1193	1.37869
1274	2.53569
1355	0.232643
1436	0.513423
1517	0.318539
1598	0.577728
1679	1.49791
1760	0.0933243
1841	0.0213925
1922	0.0296127
2003	-0.0294663
2084	0.115818
2165	-0.02175
2246	0.18161
2327	0.340672
2408	0.372728
2489	0.431559
2570	0.505773
2651	0.608121
2732	0.689548
2813	0.83636
2894	1.2839
2975	1.08273
3056	1.00462
3137	1.05118
3218	1.19283
3299	1.29567
3380	1.29358
3461	1.2453
3542	1.18067
3623	1.12689
3704	1.07644
3785	1.14249
3866	1.18939
3947	1.23236
677	1.2693
758	-0.0303344
839	1.26323
920	0.937062
1001	2.15705
1082	6.52638
1163	0.936464
1244	7.14219
1325	0.517083
1406	1.64244
1487	0.16127
1568	0.38127
1649	0.901729
1730	3.7137
1811	0.102414
1892	0.0278691
1973	-0.0509123
2054	0.000341992
2135	0.027941
2216	0.098491
2297	0.196455
2378	0.249251
2459	0.264988
2540	0.332817
2621	0.377911
2702	0.431635
2783	0.499202
2864	1.15931
2945	1.24786
3026	0.612997
3107	0.648605
3188	0.655332
3269	0.683556
3350	0.693294
3431	0.737286
3512	0.737413
3593	0.755056
3674	0.878801
3755	0.908168
3836	0.952731
3917	0.954272
3998	0.959823
728	7.2997
809	0.995366
890	1.25497
971	2.08125
1052	3.00077
1133	2.17965
1214	3.33734
1295	1.77177
1376	0.804059
1457	0.993367
1538	0.378405
1619	0.777837
1700	3.11598
1781	0.0982388
1862	0.0108365
1943	0.0369667
2024	0.0534953
2105	0.103028
2186	0.0177391
2267	0.19522
2348	0.298096
2429	0.28857
2510	0.348489
2591	0.38738
2672	0.452758
2753	0.517867
2834	0.606031
2915	0.792164
2996	0.697785
3077	0.706775
3158	0.757615
3239	0.843883
3320	0.868129
3401	0.818437
3482	0.82857
3563	0.788529
3644	0.777015
3725	0.850683
3806	0.899893
3887	0.90361
3968	0.89447
698	2.14973
779	0.445512
860	1.46732
941	1.49975
1022	3.29252
1103	5.26618
1184	1.09243
1265	5.07467
1346	0.338488
1427	0.246265
1508	0.407304
1589	0.312649
1670	1.3641
1751	0.488983
1832	0.0703031
1913	0.0249969
1994	-0.00571835
2075	0.0786515
2156	0.0305476
2237	0.122221
2318	0.222002
2399	0.23615
2480	0.285692
2561	0.326678
2642	0.379118
2723	0.425553
2804	0.504363
2885	0.911245
2966	1.15277
3047	0.642484
3128	0.697213
3209	0.740931
3290	0.811822
3371	0.847699
3452	0.896837
3533	0.879338
3614	0.882342
3695	0.832838
3776	0.857991
3857	0.911018
3938	0.934293
668	1.02051
749	-0.0273635
830	1.0662
911	0.913503
992	1.85066
1073	4.82254
1154	1.03823
1235	7.30086
1316	0.792386
1397	0.820332
1478	0.3711
1559	0.391025
1640	0.76896
1721	5.43795
1802	0.124025
1883	0.0179355
1964	0.00299421
2045	-0.0432968
2126	0.0827187
2207	0.0297322
2288	0.174162
2369	0.254423
2450	0.26751
2531	0.310956
2612	0.364021
2693	0.429682
2774	0.48079
2855	1.1919
2936	1.54295
3017	0.640718
3098	0.640032
3179	0.651597
3260	0.679809
3341	0.710781
3422	0.719261
3503	0.706749
3584	0.770511
3665	0.821331
3746	0.898396
3827	0.928452
3908	0.950542
3989	0.970202
719	7.21052
800	0.993569
881	1.78326
962	2.12907
1043	3.11727
1124	3.48117
1205	2.34302
1286	2.50856
1367	0.605953
1448	0.847131
1529	0.356409
1610	0.680871
1691	2.24651
1772	0.129232
1853	0.017825
1934	0.0230551
2015	-0.0803408
2096	0.107328
2177	0.0755226
2258	0.172913
2339	0.25357
2420	0.283737
2501	0.338985
2582	0.395362
2663	0.438353
2744	0.513009
2825	0.602176
2906	0.824839
2987	0.7479
3068	0.720244
3149	0.720505
3230	0.847287
3311	0.875177
3392	0.829064
3473	0.791072
3554	0.795179
3635	0.846788
3716	0.796277
3797	0.806205
3878	0.858803
3959	0.879406
689	1.52758
770	0.229257
851	1.33756
932	1.18257
1013	4.95367
1094	6.91594
1175	1.28965
1256	5.89494
1337	0.441409
1418	0.439928
1499	0.274113
1580	0.602516
1661	1.03517
1742	1.13421
1823	0.0779801
1904	0.0158351
1985	0.0197764
2066	0.0363911
2147	0.0865411
2228	0.124552
2309	0.185315
2390	0.250228
2471	0.281038
2552	0.314679
2633	0.366637
2714	0.417887
2795	0.503454
2876	0.900234
2957	1.23872
3038	0.619515
3119	0.689208
3200	0.718204
3281	0.806917
3362	0.84769
3443	0.925651
3524	0.884975
3605	0.859389
3686	0.793553
3767	0.856131
3848	0.861302
3929	0.910387
659	0.838856
740	1.14907
821	1.01536
902	1.21105
983	1.81407
1064	3.47925
1145	1.49853
1226	5.49106
1307	1.09948
1388	0.760456
1469	0.727929
1550	0.267397
1631	0.657126
1712	6.32439
1793	0.143409
1874	0.0321311
1955	0.0288295
2036	-0.0258901
2117	0.0831408
2198	0.0743039
2279	0.158532
2360	0.245392
2441	0.261825
2522	0.326593
2603	0.35132
2684	0.427359
2765	0.482245
2846	0.670212
2927	1.58
3008	0.6739
3089	0.64073
3170	0.637775
3251	0.670703
3332	0.699618
3413	0.705481
3494	0.689979
3575	0.748205
3656	0.862816
3737	0.906702
3818	0.903562
3899	0.961217
3980	0.97433
710	3.76921
791	1.1365
872	2.64166
953	2.10006
1034	2.70213
1115	4.23309
1196	1.63775
1277	3.39057
1358	0.302609
1439	0.553661
1520	0.357827
1601	0.594769
1682	1.80513
1763	0.170128
1844	0.073976
1925	0.0361455
2006	-0.0417203
2087	0.0799722
2168	-0.0263516
2249	0.118431
2330	0.264896
2411	0.273857
2492	0.325075
2573	0.372098
2654	0.449029
2735	0.505064
2816	0.617424
2897	0.850646
2978	0.828869
3059	0.712606
3140	0.721546
3221	0.823897
3302	0.876438
3383	0.880988
3464	0.797273
3545	0.75415
3626	0.785676
3707	0.777979
3788	0.808808
3869	0.900505
3950	0.8746
680	1.41476
761	0.0201121
842	1.32499
923	0.999525
1004	2.56804
1085	7.05296
1166	0.932933
1247	6.55456
1328	0.325456
1409	1.68404
1490	0.0567776
1571	0.432743
1652	0.87995
1733	2.56125
1814	0.0682235
1895	0.0223921
1976	-0.0465064
2057	0.022831
2138	0.0330185
2219	0.0694238
2300	0.18734
2381	0.249576
2462	0.240873
2543	0.314003
2624	0.365906
2705	0.418486
2786	0.473094
2867	1.04072
2948	1.32242
3029	0.621567
3110	0.676762
3191	0.740227
3272	0.792738
3353	0.855581
3434	0.928714
3515	0.913427
3596	0.837198
3677	0.836801
3758	0.85066
3839	0.894684
3920	0.906493
650	1.4894
731	3.94296
812	1.19861
893	1.2899
974	1.87093
1055	2.55889
1136	1.50722
1217	3.0071
1298	1.17379
1379	0.622202
1460	0.735217
1541	0.42017
1622	0.648287
1703	2.89885
1784	0.0668563
1865	0.0362359
1946	0.0251465
2027	-0.0492308
2108	0.119042
2189	0.0536194
2270	0.225161
2351	0.331824
2432	0.375551
2513	0.426473
2594	0.50112
2675	0.594846
2756	0.681983
2837	0.93098
2918	1.62191
2999	0.883838
3080	0.92169
3161	0.968081
3242	1.08451
3323	1.14883
3404	1.15796
3485	1.12633
3566	1.10206
3647	1.12366
3728	1.12398
3809	1.15568
3890	1.20569
3971	1.24286
701	2.97545
782	0.804258
863	1.87778
944	1.81769
1025	2.25162
1106	3.35963
1187	1.18087
1268	3.26666
1349	0.200091
1430	0.294726
1511	0.264763
1592	0.430749
1673	1.4115
1754	0.179681
1835	0.0127689
1916	0.0186012
1997	-0.0151885
2078	0.0729876
2159	0.0223028
2240	0.154111
2321	0.301504
2402	0.344056
2483	0.38565
2564	0.445755
2645	0.541571
2726	0.612739
2807	0.743748
2888	1.19491
2969	1.10076
3050	0.866888
3131	0.925876
3212	1.04151
3293	1.14117
3374	1.15997
3455	1.14901
3536	1.11575
3617	1.04939
3698	1.00326
3779	1.03891
3860	1.08974
3941	1.12817
671	1.37962
752	-0.00677738
833	1.18957
914	0.912821
995	1.82527
1076	3.89169
1157	0.720344
1238	4.42248
1319	0.498209
1400	1.07735
1481	0.150217
1562	0.427507
1643	0.891656
1724	3.15521
1805	0.040715
1886	-0.00539818
1967	0.00543001
2048	-0.0231027
2129	0.103129
2210	0.0899576
2291	0.232273
2372	0.28672
2453	0.324865
2534	0.390064
2615	0.472068
2696	0.541954
2777	0.641208
2858	1.46447
2939	1.70614
3020	0.847612
3101	0.947381
3182	1.05408
3263	1.20811
3344	1.30909
3425	1.37852
3506	1.27658
3587	1.12888
3668	1.0123
3749	0.997914
3830	1.04626
3911	1.08973
3992	1.13672
722	4.63302
803	0.996328
884	1.29116
965	1.82735
1046	2.46028
1127	2.27642
1208	2.37123
1289	1.95636
1370	0.847472
1451	1.0318
1532	0.280281
1613	0.706407
1694	2.54832
1775	0.155733
1856	0.0334112
1937	0.0657054
2018	-0.0223553
2099	0.10252
2180	0.00918286
2261	0.177941
2342	0.297514
2423	0.354651
2504	0.406702
2585	0.473271
2666	0.575609
2747	0.654043
2828	0.876954
2909	1.6723
2990	0.978485
3071	0.923644
3152	0.949934
3233	1.04709
3314	1.12945
3395	1.14745
3476	1.13413
3557	1.10264
3638	1.06788
3719	1.06427
3800	1.13157
3881	1.1723
3962	1.1858
692	1.99776
773	0.473428
854	1.34221
935	1.31612
1016	3.30717
1097	3.63242
1178	1.04036
1259	3.23897
1340	0.392756
1421	0.311971
1502	0.512714
1583	0.604481
1664	1.16143
1745	0.6568
1826	0.143217
1907	0.0878878
1988	-0.00569481
2069	0.0847055
2150	0.0893898
2231	0.156865
2312	0.346434
2393	0.409856
2474	0.440023
2555	0.495515
2636	0.602293
2717	0.682321
2798	0.812989
2879	1.27113
2960	1.42591
3041	0.910004
3122	0.983825
3203	1.0882
3284	1.17417
3365	1.19454
3446	1.2022
3527	1.15264
3608	1.12825
3689	1.11107
3770	1.12702
3851	1.21677
3932	1.23448
662	1.34187
743	0.273808
824	1.14498
905	1.09401
986	1.73607
1067	3.10123
1148	0.883839
1229	3.85166
1310	0.647968
1391	0.664478
1472	0.441149
1553	0.385528
1634	0.762993
1715	3.45492
1796	0.147612
1877	0.0671981
1958	0.0438734
2039	-0.069943
2120	0.153921
2201	0.0794006
2282	0.281988
2363	0.337434
2444	0.409132
2525	0.470837
2606	0.547085
2687	0.637486
2768	0.727721
2849	1.46477
2930	1.85013
3011	0.894187
3092	0.926386
3173	0.985832
3254	1.06503
3335	1.11592
3416	1.13681
3497	1.08943
3578	1.07335
3659	1.0707
3740	1.19179
3821	1.20496
3902	1.27046
3983	1.22151
713	3.54591
794	1.38301
875	2.4837
956	2.15624
1037	2.66099
1118	3.56054
1199	1.94118
1280	2.93472
1361	0.422742
1442	0.786958
1523	0.172434
1604	0.475208
1685	2.09902
1766	0.148147
1847	0.0062738
1928	0.0125763
2009	-0.0231812
2090	0.0867365
2171	0.076485
2252	0.165834
2333	0.245753
2414	0.308664
2495	0.358442
2576	0.4236
2657	0.50454
2738	0.571985
2819	0.714051
2900	1.25647
2981	0.964405
3062	0.821282
3143	0.832467
3224	0.910384
3305	0.969863
3386	1.01029
3467	1.01127
3548	1.01288
3629	1.00876
3710	0.9908
3791	1.04489
3872	1.0937
3953	1.13298
683	1.88923
764	0.186463
845	1.47557
926	1.26261
1007	2.95796
1088	4.56815
1169	1.1119
1250	4.04544
1331	0.261792
1412	1.03098
1493	0.0894062
1574	0.67002
1655	1.0506
1736	1.4563
1817	0.0316492
1898	0.00830931
1979	-0.0194604
2060	0.0411135
2141	0.0763845
2222	0.123209
2303	0.261469
2384	0.336915
2465	0.35972
2546	0.427162
2627	0.524796
2708	0.588652
2789	0.700134
2870	1.21147
2951	1.4717
3032	0.81261
3113	0.892663
3194	0.986587
3275	1.08438
3356	1.12583
3437	1.17356
3518	1.08864
3599	1.0279
3680	0.977451
3761	1.00104
3842	1.04779
3923	1.09923
653	1.11513
734	2.25146
815	1.03871
896	1.18335
977	1.64527
1058	2.46795
1139	1.2587
1220	3.26651
1301	0.921813
1382	0.610036
1463	0.709141
1544	0.453338
1625	0.736811
1706	3.65795
1787	0.14321
1868	0.102601
1949	0.0903776
2030	-0.0650506
2111	0.15156
2192	0.0416699
2273	0.246278
2354	0.348276
2435	0.39126
2516	0.45092
2597	0.525218
2678	0.632287
2759	0.722297
2840	1.25219
2921	2.41876
3002	0.947947
3083	0.939588
3164	0.983906
3245	1.09469
3326	1.16244
3407	1.18182
3488	1.1341
3569	1.11719
3650	1.13335
3731	1.09869
3812	1.0997
3893	1.15615
3974	1.16826
4000	1.1791