File: 4_community_and_isolates/a_growth_and_FTIR/corrected_spectra_r_PET.txt
.wavelength	spc
650	1.79677
731	2.91713
812	1.36487
893	1.44706
974	2.34475
1055	2.74388
1136	1.99612
1217	3.53453
1298	1.05025
1379	0.494683
1460	0.520756
1541	0.235413
1622	0.716473
1703	3.98576
1784	-0.0442291
1865	-0.0229882
1946	0.0848237
2027	0.021999
2108	0.226586
2189	0.167828
2270	0.319344
2351	0.39908
2432	0.431583
2513	0.485985
2594	0.541536
2675	0.585774
2756	0.635566
2837	0.70641
2918	0.809411
2999	0.84266
3080	0.802209
3161	0.773792
3242	0.802445
3323	0.843396
3404	0.894075
3485	0.893002
3566	0.953998
3647	0.98839
3728	0.976305
3809	1.02988
3890	1.06572
3971	1.0941
701	3.52424
782	1.27742
863	2.26881
944	1.8773
1025	2.75845
1106	3.94192
1187	1.67415
1268	3.37972
1349	0.718384
1430	0.240511
1511	0.342429
1592	0.438382
1673	1.92704
1754	0.107157
1835	0.0095786
1916	0.0242779
1997	-0.00592465
2078	0.163801
2159	0.0350509
2240	0.233776
2321	0.376337
2402	0.384932
2483	0.409358
2564	0.474805
2645	0.530815
2726	0.559257
2807	0.624116
2888	0.74616
2969	0.981509
3050	0.729559
3131	0.710615
3212	0.710222
3293	0.746262
3374	0.782186
3455	0.800653
3536	0.841092
3617	0.901883
3698	0.884227
3779	0.933421
3860	0.958344
3941	0.984006
671	1.70773
752	0.12216
833	1.47756
914	1.08463
995	1.94948
1076	3.48163
1157	0.667528
1238	4.03683
1319	0.301028
1400	0.956838
1481	0.187653
1562	0.261234
1643	0.803624
1724	3.22356
1805	0.0190473
1886	-0.0211937
1967	0.0354876
2048	0.0317755
2129	0.149517
2210	0.200954
2291	0.401971
2372	0.424555
2453	0.459628
2534	0.544314
2615	0.608826
2696	0.653721
2777	0.728669
2858	0.850051
2939	0.963007
3020	0.909694
3101	0.944842
3182	0.939188
3263	0.97307
3344	1.03312
3425	1.1384
3506	1.1184
3587	1.18422
3668	1.20525
3749	1.27838
3830	1.28561
3911	1.34051
3992	1.4066
722	5.25754
803	1.52884
884	1.66484
965	2.64114
1046	2.88764
1127	3.28266
1208	3.13223
1289	1.77661
1370	0.598667
1451	0.615558
1532	0.273966
1613	0.788222
1694	3.08856
1775	-0.0454265
1856	-0.0130697
1937	0.0606977
2018	-0.0388634
2099	0.181652
2180	0.103564
2261	0.283202
2342	0.380409
2423	0.393164
2504	0.432691
2585	0.478421
2666	0.522567
2747	0.567487
2828	0.610776
2909	0.764806
2990	0.757537
3071	0.694714
3152	0.645898
3233	0.676803
3314	0.706432
3395	0.71999
3476	0.734063
3557	0.77882
3638	0.821318
3719	0.809852
3800	0.838235
3881	0.865659
3962	0.895409
692	2.97959
773	1.04447
854	2.13028
935	1.77512
1016	3.83786
1097	4.367
1178	1.51318
1259	3.89051
1340	1.8556
1421	0.233135
1502	0.643067
1583	0.615905
1664	1.51512
1745	0.606223
1826	0.0303558
1907	0.0173406
1988	0.0136677
2069	0.128636
2150	0.0759283
2231	0.222917
2312	0.378485
2393	0.404561
2474	0.419691
2555	0.471721
2636	0.54223
2717	0.566603
2798	0.629635
2879	0.737583
2960	0.942027
3041	0.686346
3122	0.712618
3203	0.713179
3284	0.741911
3365	0.767374
3446	0.827626
3527	0.836569
3608	0.884092
3689	0.895737
3770	0.923997
3851	0.932309
3932	0.975106
662	1.6094
743	0.180674
824	1.3015
905	1.22297
986	1.9006
1067	3.12529
1148	0.933159
1229	4.06172
1310	0.550143
1391	0.517441
1472	0.503907
1553	0.204946
1634	0.768703
1715	4.33327
1796	0.00521108
1877	-0.029597
1958	0.0536831
2039	-0.0218876
2120	0.192381
2201	0.186701
2282	0.368884
2363	0.406723
2444	0.453568
2525	0.511497
2606	0.578178
2687	0.620055
2768	0.687439
2849	0.787854
2930	0.859039
3011	0.885551
3092	0.871291
3173	0.861571
3254	0.894442
3335	0.946406
3416	1.02529
3497	1.01357
3578	1.05738
3659	1.12819
3740	1.13929
3821	1.2105
3902	1.24686
3983	1.27144
713	4.66131
794	1.69883
875	2.53898
956	2.29747
1037	2.69615
1118	3.76242
1199	2.47154
1280	2.47278
1361	0.347397
1442	0.545661
1523	0.316722
1604	0.666013
1685	2.55464
1766	-0.0457186
1847	0.00365317
1928	0.0682762
2009	0.0188925
2090	0.172188
2171	0.0857542
2252	0.25352
2333	0.356318
2414	0.389929
2495	0.422946
2576	0.46434
2657	0.53144
2738	0.557193
2819	0.605422
2900	0.740242
2981	0.815179
3062	0.68513
3143	0.659765
3224	0.672787
3305	0.692626
3386	0.718744
3467	0.738963
3548	0.784288
3629	0.818625
3710	0.801561
3791	0.827838
3872	0.890722
3953	0.895411
683	2.15352
764	0.369184
845	1.87319
926	1.21256
1007	2.51202
1088	3.90298
1169	0.946636
1250	3.81032
1331	0.596021
1412	1.29251
1493	0.0632059
1574	0.476228
1655	1.07127
1736	1.82997
1817	0.00906723
1898	-0.00506403
1979	-0.0128917
2060	0.0855802
2141	0.128146
2222	0.212083
2303	0.37584
2384	0.439824
2465	0.473844
2546	0.543623
2627	0.616793
2708	0.655015
2789	0.729763
2870	0.841932
2951	1.01834
3032	0.859015
3113	0.903723
3194	0.92642
3275	0.954373
3356	1.01232
3437	1.11456
3518	1.0951
3599	1.1611
3680	1.20688
3761	1.24798
3842	1.31509
3923	1.35482
653	1.67334
734	2.07176
815	1.23834
896	1.34098
977	2.1123
1058	2.69809
1139	1.62401
1220	3.55756
1301	0.876171
1382	0.446755
1463	0.461887
1544	0.238903
1625	0.65904
1706	3.9816
1787	-0.0229649
1868	-0.0153073
1949	0.0730566
2030	0.00972749
2111	0.213069
2192	0.147831
2273	0.324901
2354	0.394876
2435	0.450843
2516	0.508317
2597	0.561009
2678	0.614979
2759	0.668254
2840	0.746318
2921	0.831986
3002	0.878052
3083	0.853305
3164	0.836861
3245	0.868628
3326	0.916857
3407	0.964518
3488	0.988562
3569	1.06936
3650	1.12237
3731	1.10707
3812	1.15563
3893	1.20257
3974	1.24636
704	3.94473
785	1.52434
866	2.64396
947	2.07507
1028	2.57071
1109	3.96037
1190	1.89691
1271	3.28992
1352	0.444213
1433	0.35637
1514	0.282706
1595	0.537651
1676	2.11273
1757	0.0151336
1838	0.0113805
1919	0.0484561
2000	0.00826317
2081	0.170431
2162	0.036832
2243	0.248447
2324	0.381006
2405	0.38635
2486	0.412997
2567	0.465771
2648	0.50872
2729	0.539557
2810	0.588947
2891	0.690999
2972	0.867795
3053	0.671501
3134	0.628881
3215	0.632999
3296	0.668037
3377	0.684179
3458	0.714619
3539	0.750945
3620	0.789761
3701	0.785426
3782	0.816582
3863	0.840707
3944	0.870148
674	2.21566
755	0.292994
836	1.83801
917	1.313
998	2.32897
1079	4.06336
1160	0.783593
1241	4.4827
1322	0.283498
1403	1.23147
1484	0.200419
1565	0.355304
1646	0.913507
1727	2.99457
1808	0.0169116
1889	-0.00802444
1970	0.0057744
2051	0.0268364
2132	0.138203
2213	0.173857
2294	0.36059
2375	0.402283
2456	0.429078
2537	0.500417
2618	0.545342
2699	0.593257
2780	0.653807
2861	0.741685
2942	0.837786
3023	0.772575
3104	0.807283
3185	0.796914
3266	0.835097
3347	0.873055
3428	0.964648
3509	0.947417
3590	1.00362
3671	1.05544
3752	1.09503
3833	1.11262
3914	1.13243
3995	1.17603
725	4.26524
806	1.25729
887	1.3571
968	2.34482
1049	2.58199
1130	2.62
1211	3.05896
1292	1.44921
1373	0.550498
1454	0.566521
1535	0.16969
1616	0.681283
1697	3.31046
1778	-0.0240618
1859	-0.0155706
1940	0.075995
2021	-0.0235726
2102	0.189296
2183	0.112333
2264	0.297428
2345	0.417845
2426	0.42437
2507	0.482283
2588	0.530225
2669	0.589793
2750	0.643518
2831	0.730699
2912	0.950406
2993	0.887041
3074	0.834769
3155	0.801811
3236	0.835131
3317	0.868073
3398	0.903089
3479	0.909688
3560	0.960176
3641	0.995547
3722	1.01667
3803	1.07805
3884	1.10578
3965	1.15185
695	2.851
776	0.916408
857	1.86584
938	1.5968
1019	3.44667
1100	4.00486
1181	1.36137
1262	3.52119
1343	1.48267
1424	0.0810014
1505	0.589687
1586	0.464193
1667	1.50975
1748	0.273042
1829	0.0199891
1910	0.0318599
1991	0.0606545
2072	0.183193
2153	0.0736667
2234	0.283939
2315	0.405635
2396	0.443669
2477	0.479595
2558	0.535297
2639	0.60498
2720	0.636433
2801	0.702514
2882	0.815117
2963	1.02684
3044	0.799805
3125	0.821892
3206	0.829282
3287	0.868516
3368	0.903342
3449	0.949657
3530	0.998182
3611	1.01553
3692	1.04981
3773	1.08303
3854	1.10998
3935	1.15302
665	1.93646
746	0.0463287
827	1.47644
908	1.24431
989	1.996
1070	3.35296
1151	0.774227
1232	4.1476
1313	0.389552
1394	0.532014
1475	0.404664
1556	0.244921
1637	0.772668
1718	3.82105
1799	-0.00593228
1880	-0.0127841
1961	0.0677459
2042	-0.00430316
2123	0.20802
2204	0.195388
2285	0.39091
2366	0.427103
2447	0.4605
2528	0.521339
2609	0.578009
2690	0.624502
2771	0.684847
2852	0.803223
2933	0.868523
3014	0.86531
3095	0.870063
3176	0.864446
3257	0.903806
3338	0.958359
3419	1.02725
3500	1.02349
3581	1.03167
3662	1.09542
3743	1.11778
3824	1.18954
3905	1.21634
3986	1.26248
716	4.93195
797	1.60645
878	2.19677
959	2.34782
1040	2.75613
1121	3.58016
1202	2.56432
1283	2.23088
1364	0.392382
1445	0.543809
1526	0.267183
1607	0.638313
1688	2.53574
1769	-0.034772
1850	-0.0164264
1931	0.0450461
2012	0.0433694
2093	0.171347
2174	0.171506
2255	0.285395
2336	0.372655
2417	0.394248
2498	0.443383
2579	0.491085
2660	0.55161
2741	0.57595
2822	0.613823
2903	0.752137
2984	0.772975
3065	0.696907
3146	0.692715
3227	0.716077
3308	0.755738
3389	0.758872
3470	0.782302
3551	0.814607
3632	0.883226
3713	0.882994
3794	0.869127
3875	0.922761
3956	0.942366
686	3.06217
767	1.06492
848	2.57365
929	1.94416
1010	3.7513
1091	4.99819
1172	1.58589
1253	4.59698
1334	1.46279
1415	1.02139
1496	0.339743
1577	0.795667
1658	1.53007
1739	1.54481
1820	0.0143486
1901	0.0100123
1982	0.0771822
2063	0.0941951
2144	0.0702227
2225	0.174885
2306	0.306443
2387	0.33495
2468	0.326715
2549	0.386735
2630	0.448121
2711	0.451042
2792	0.501667
2873	0.61015
2954	0.809056
3035	0.543174
3116	0.559102
3197	0.554204
3278	0.583301
3359	0.592185
3440	0.672952
3521	0.612114
3602	0.654621
3683	0.656914
3764	0.675353
3845	0.696621
3926	0.717663
656	1.7145
737	1.1104
818	1.31234
899	1.37197
980	1.98702
1061	2.84939
1142	1.23836
1223	3.77406
1304	0.686356
1385	0.465655
1466	0.461371
1547	0.254389
1628	0.694674
1709	4.34415
1790	-0.0195997
1871	-0.00379529
1952	0.0745709
2033	0.00568956
2114	0.216898
2195	0.178779
2276	0.355407
2357	0.404622
2438	0.436598
2519	0.500465
2600	0.567345
2681	0.61471
2762	0.681569
2843	0.760997
2924	0.844605
3005	0.876914
3086	0.863167
3167	0.845881
3248	0.871195
3329	0.92515
3410	0.986487
3491	0.991518
3572	1.08108
3653	1.14545
3734	1.09555
3815	1.12356
3896	1.17611
3977	1.23617
707	3.33185
788	1.08778
869	2.33629
950	1.49592
1031	1.93872
1112	3.30639
1193	1.60296
1274	2.65581
1355	0.215934
1436	0.312813
1517	0.0570523
1598	0.30501
1679	1.98643
1760	0.0758058
1841	0.00260764
1922	0.0183747
2003	-0.0382273
2084	0.166931
2165	0.136032
2246	0.267644
2327	0.410446
2408	0.418151
2489	0.472912
2570	0.539692
2651	0.623536
2732	0.672591
2813	0.752018
2894	0.901574
2975	1.1025
3056	0.936798
3137	0.921956
3218	0.940705
3299	0.999184
3380	1.03621
3461	1.08156
3542	1.13999
3623	1.21413
3704	1.22646
3785	1.29717
3866	1.32108
3947	1.40069
677	2.08781
758	0.29182
839	1.77513
920	1.22825
1001	2.2751
1082	3.95934
1163	0.753969
1244	4.16994
1325	0.211324
1406	1.48997
1487	0.116735
1568	0.389766
1649	0.972684
1730	2.44839
1811	0.00892064
1892	0.00627169
1973	-0.0554167
2054	0.0831028
2135	0.154352
2216	0.212479
2297	0.397343
2378	0.453699
2459	0.47931
2540	0.539943
2621	0.610794
2702	0.656972
2783	0.719939
2864	0.827561
2945	0.95279
3026	0.828234
3107	0.874834
3188	0.87606
3269	0.902263
3350	0.956482
3431	1.03968
3512	1.04262
3593	1.1258
3674	1.18054
3755	1.24416
3836	1.22623
3917	1.26055
3998	1.30637
728	3.07249
809	0.920751
890	1.0176
971	1.90671
1052	2.18158
1133	1.9587
1214	2.78661
1295	1.07198
1376	0.380732
1457	0.442129
1538	0.134573
1619	0.546715
1700	3.27606
1781	-0.017249
1862	-0.0251051
1943	0.0758076
2024	-0.0339052
2105	0.208749
2186	0.1585
2267	0.349545
2348	0.456002
2429	0.500236
2510	0.560405
2591	0.630778
2672	0.703269
2753	0.774146
2834	0.847868
2915	0.977791
2996	1.03065
3077	1.00909
3158	0.99617
3239	1.03762
3320	1.09778
3401	1.15415
3482	1.18935
3563	1.27198
3644	1.30308
3725	1.37116
3806	1.44012
3887	1.47484
3968	1.51199
698	2.66835
779	0.721854
860	1.66831
941	1.35153
1022	2.8009
1103	3.56458
1184	1.23242
1265	3.16686
1346	1.0681
1427	0.0696341
1508	0.399377
1589	0.294684
1670	1.62314
1751	0.273966
1832	0.0166187
1913	0.0113875
1994	0.0238462
2075	0.136059
2156	0.0615435
2237	0.266918
2318	0.381671
2399	0.448959
2480	0.48253
2561	0.54826
2642	0.624109
2723	0.675196
2804	0.759386
2885	0.896805
2966	1.16792
3047	0.913101
3128	0.925184
3209	0.960418
3290	1.00824
3371	1.05727
3452	1.11883
3533	1.16678
3614	1.23127
3695	1.26316
3776	1.28837
3857	1.36567
3938	1.38176
668	2.08448
749	0.150861
830	1.6685
911	1.34235
992	2.18922
1073	3.70612
1154	0.815779
1235	4.45112
1316	0.389689
1397	0.749613
1478	0.360675
1559	0.348296
1640	0.920647
1721	3.74778
1802	-0.00033027
1883	-0.0070424
1964	0.0383449
2045	0.000955477
2126	0.174678
2207	0.185733
2288	0.368679
2369	0.407687
2450	0.436484
2531	0.489369
2612	0.55225
2693	0.589697
2774	0.649107
2855	0.758041
2936	0.830856
3017	0.803867
3098	0.804703
3179	0.792793
3260	0.832529
3341	0.858987
3422	0.948134
3503	0.902689
3584	0.952898
3665	0.984554
3746	0.9949
3827	1.05961
3908	1.10759
3989	1.1293
719	4.48929
800	1.19858
881	1.54318
962	2.1499
1043	2.52648
1124	3.18137
1205	2.57542
1286	1.9203
1367	0.501218
1448	0.531543
1529	0.174362
1610	0.635898
1691	2.74627
1772	0.00415208
1853	-0.0270995
1934	0.0296846
2015	-0.0217083
2096	0.176327
2177	0.108692
2258	0.290111
2339	0.38594
2420	0.411877
2501	0.465196
2582	0.542698
2663	0.596211
2744	0.642475
2825	0.706191
2906	0.898255
2987	0.925244
3068	0.84557
3149	0.816422
3230	0.849521
3311	0.891329
3392	0.911865
3473	0.955749
3554	1.01971
3635	1.10653
3716	1.08785
3797	1.09386
3878	1.13107
3959	1.19006
689	2.47292
770	0.6317
851	2.10047
932	1.48695
1013	3.56682
1094	4.52159
1175	1.37823
1256	4.21172
1337	1.77991
1418	0.62651
1499	0.343922
1580	0.641185
1661	1.35116
1742	1.22831
1823	0.026179
1904	-0.0126144
1985	0.0247542
2066	0.104925
2147	0.0944283
2228	0.182834
2309	0.346785
2390	0.382288
2471	0.426057
2552	0.467858
2633	0.556646
2714	0.567705
2795	0.623168
2876	0.734208
2957	0.905437
3038	0.721743
3119	0.764427
3200	0.76874
3281	0.789195
3362	0.813335
3443	0.911496
3524	0.889651
3605	0.924989
3686	0.981375
3767	1.02679
3848	1.01364
3929	1.07414
659	2.12683
740	0.883997
821	1.66889
902	1.68551
983	2.37229
1064	3.37712
1145	1.36464
1226	4.29218
1307	0.822673
1388	0.645058
1469	0.634827
1550	0.288826
1631	0.894658
1712	4.62281
1793	0.00976074
1874	-0.0317533
1955	0.036036
2036	0.0119616
2117	0.203702
2198	0.147896
2279	0.329043
2360	0.334448
2441	0.367992
2522	0.434087
2603	0.490603
2684	0.514698
2765	0.562819
2846	0.627501
2927	0.687381
3008	0.721317
3089	0.677018
3170	0.651729
3251	0.665307
3332	0.711621
3413	0.747966
3494	0.755539
3575	0.79396
3656	0.875723
3737	0.825499
3818	0.842552
3899	0.859434
3980	0.909759
710	3.64053
791	1.29041
872	2.54992
953	1.72512
1034	2.14882
1115	3.467
1196	1.83837
1277	2.67559
1358	0.239552
1439	0.374804
1520	0.085063
1601	0.371018
1682	2.15363
1763	0.059139
1844	-0.0175713
1925	0.00799748
2006	-0.0215153
2087	0.161908
2168	0.124846
2249	0.261944
2330	0.38077
2411	0.429667
2492	0.480969
2573	0.542565
2654	0.607291
2735	0.652384
2816	0.719962
2897	0.851547
2978	1.01736
3059	0.870694
3140	0.8568
3221	0.893075
3302	0.927811
3383	0.964318
3464	1.00267
3545	1.03602
3626	1.10128
3707	1.10123
3788	1.16793
3869	1.19531
3950	1.23432
680	1.79208
761	0.223395
842	1.68869
923	1.08806
1004	2.27767
1085	3.80282
1166	0.839558
1247	3.84734
1328	0.474217
1409	1.61897
1490	0.0398133
1571	0.435486
1652	1.13147
1733	2.12138
1814	0.027279
1895	-0.0214728
1976	-0.0355146
2057	0.0736409
2138	0.13405
2219	0.209931
2300	0.391667
2381	0.458681
2462	0.474249
2543	0.54487
2624	0.625723
2705	0.66917
2786	0.746268
2867	0.881367
2948	1.0763
3029	0.891332
3110	0.94442
3191	0.936583
3272	0.988864
3353	1.02374
3434	1.13597
3515	1.12978
3596	1.19379
3677	1.27298
3758	1.28865
3839	1.32624
3920	1.35923
650	1.66429
731	2.97645
812	1.31382
893	1.39763
974	2.3099
1055	2.70619
1136	2.03855
1217	3.50514
1298	1.09073
1379	0.491702
1460	0.512734
1541	0.229658
1622	0.692239
1703	3.9315
1784	-0.0203459
1865	-0.0210374
1946	0.07072
2027	-0.00504479
2108	0.207669
2189	0.150254
2270	0.321602
2351	0.398993
2432	0.427952
2513	0.484097
2594	0.534217
2675	0.586414
2756	0.639402
2837	0.714107
2918	0.818742
2999	0.846915
3080	0.821134
3161	0.786383
3242	0.821129
3323	0.863537
3404	0.916952
3485	0.908563
3566	0.974091
3647	1.0282
3728	1.02166
3809	1.07683
3890	1.10675
3971	1.13301
701	3.15029
782	1.05856
863	2.01444
944	1.65575
1025	2.44159
1106	3.60215
1187	1.50357
1268	3.11026
1349	0.535472
1430	0.18673
1511	0.28994
1592	0.40915
1673	1.88585
1754	0.0536033
1835	0.00470418
1916	0.0366646
1997	0.0205451
2078	0.172368
2159	0.0710377
2240	0.264492
2321	0.418015
2402	0.434119
2483	0.458738
2564	0.521293
2645	0.599185
2726	0.640565
2807	0.707461
2888	0.838399
2969	1.07113
3050	0.835671
3131	0.824412
3212	0.840033
3293	0.89143
3374	0.914986
3455	0.943922
3536	1.00817
3617	1.06974
3698	1.0591
3779	1.09282
3860	1.1647
3941	1.17859
671	1.99631
752	0.142736
833	1.60983
914	1.23073
995	2.12316
1076	3.78774
1157	0.676797
1238	4.36554
1319	0.244627
1400	0.993722
1481	0.210583
1562	0.4207
1643	0.923764
1724	3.22616
1805	0.0144483
1886	0.00150763
1967	-0.0583553
2048	0.0295854
2129	0.156008
2210	0.20985
2291	0.397385
2372	0.441355
2453	0.471558
2534	0.522943
2615	0.597735
2696	0.648673
2777	0.696413
2858	0.80455
2939	0.877789
3020	0.827114
3101	0.864872
3182	0.844901
3263	0.897703
3344	0.907801
3425	1.01064
3506	1.01656
3587	1.06166
3668	1.06291
3749	1.17437
3830	1.17566
3911	1.22461
3992	1.25459
722	4.5679
803	1.17432
884	1.34167
965	2.23169
1046	2.50849
1127	2.92512
1208	2.7826
1289	1.62573
1370	0.499928
1451	0.509065
1532	0.178282
1613	0.661669
1694	2.90298
1775	-0.0306581
1856	-0.0182142
1937	0.0526707
2018	-0.0244065
2099	0.196563
2180	0.121327
2261	0.299156
2342	0.423349
2423	0.444371
2504	0.488314
2585	0.555315
2666	0.614408
2747	0.664369
2828	0.726529
2909	0.89101
2990	0.912106
3071	0.860735
3152	0.83044
3233	0.85719
3314	0.902199
3395	0.937232
3476	0.95593
3557	1.02626
3638	1.10742
3719	1.09332
3800	1.12154
3881	1.16371
3962	1.21072
692	2.64303
773	0.836222
854	1.88658
935	1.56941
1016	3.55422
1097	4.03787
1178	1.34312
1259	3.60726
1340	1.72335
1421	0.140043
1502	0.591993
1583	0.535252
1664	1.428
1745	0.548652
1826	0.0368908
1907	0.0210592
1988	0.0378928
2069	0.119654
2150	0.0907626
2231	0.253443
2312	0.397379
2393	0.442421
2474	0.464819
2555	0.523379
2636	0.598912
2717	0.636751
2798	0.695417
2879	0.814005
2960	1.03774
3041	0.793776
3122	0.81936
3203	0.834003
3284	0.870174
3365	0.887839
3446	0.961069
3527	0.991988
3608	1.03651
3689	1.07313
3770	1.11688
3851	1.14392
3932	1.18939
662	1.67387
743	0.131833
824	1.3224
905	1.22533
986	1.91155
1067	3.14397
1148	0.885417
1229	4.06473
1310	0.509857
1391	0.475328
1472	0.476014
1553	0.190694
1634	0.718579
1715	4.2934
1796	0.0129749
1877	-0.0202913
1958	0.0261425
2039	-0.0155729
2120	0.183762
2201	0.145288
2282	0.361801
2363	0.407002
2444	0.433646
2525	0.502958
2606	0.577907
2687	0.619819
2768	0.68299
2849	0.775409
2930	0.842003
3011	0.871261
3092	0.862909
3173	0.866443
3254	0.898748
3335	0.947992
3416	1.00847
3497	1.01894
3578	1.09494
3659	1.16309
3740	1.18992
3821	1.24396
3902	1.2904
3983	1.30747
713	3.84216
794	1.26439
875	2.08545
956	1.82807
1037	2.26661
1118	3.28318
1199	2.09553
1280	2.211
1361	0.255637
1442	0.433601
1523	0.214064
1604	0.540153
1685	2.39198
1766	-0.0215247
1847	-0.00125287
1928	0.0346099
2009	-0.0102142
2090	0.187589
2171	0.133343
2252	0.289597
2333	0.398997
2414	0.449585
2495	0.4953
2576	0.558453
2657	0.633134
2738	0.679928
2819	0.739688
2900	0.895341
2981	0.992782
3062	0.886514
3143	0.857164
3224	0.894011
3305	0.934693
3386	0.963532
3467	1.00539
3548	1.07896
3629	1.15406
3710	1.13202
3791	1.17438
3872	1.25211
3953	1.26939
683	2.52186
764	0.651966
845	2.16324
926	1.51037
1007	2.9195
1088	4.35201
1169	1.1697
1250	4.1958
1331	0.77469
1412	1.38069
1493	0.149766
1574	0.608362
1655	1.22386
1736	1.80306
1817	0.0178127
1898	0.0151249
1979	0.00966629
2060	0.0816575
2141	0.11604
2222	0.203935
2303	0.341746
2384	0.403367
2465	0.420418
2546	0.475971
2627	0.546153
2708	0.57823
2789	0.642526
2870	0.767211
2951	0.94226
3032	0.732242
3113	0.766334
3194	0.783576
3275	0.816053
3356	0.86054
3437	0.934186
3518	0.894948
3599	0.923456
3680	0.943933
3761	0.972579
3842	1.02178
3923	1.05611
653	1.72319
734	2.03591
815	1.31263
896	1.40276
977	2.12576
1058	2.74526
1139	1.64971
1220	3.63305
1301	0.920992
1382	0.50102
1463	0.479827
1544	0.205506
1625	0.682208
1706	4.20322
1787	-0.00920091
1868	-0.0232521
1949	0.0556059
2030	0.0215347
2111	0.206392
2192	0.163558
2273	0.314244
2354	0.382484
2435	0.42662
2516	0.482312
2597	0.539211
2678	0.595038
2759	0.64972
2840	0.73134
2921	0.836552
3002	0.883358
3083	0.850732
3164	0.818313
3245	0.853694
3326	0.90504
3407	0.952096
3488	0.958054
3569	1.02352
3650	1.07643
3731	1.04075
3812	1.09163
3893	1.13252
3974	1.18491
4000	1.19693